<?xml version="1.0" encoding="UTF-8"?>
<!-- Dataset-XML: Untyped Data Example  --> 
<!-- Built from the SAS XPT files published with the SDTM-MSG (SDTM Metadata Submission Guidelines) V2.0 --> 
<ODM
  xmlns="http://www.cdisc.org/ns/odm/v1.3"
  xmlns:xlink="http://www.w3.org/1999/xlink" 
  xmlns:data="http://www.cdisc.org/ns/Dataset-XML/v1.0"
  FileType="Snapshot"
  ODMVersion="1.3.2"
  data:DatasetXMLVersion="1.0.0"
  FileOID="www.cdisc.org/StudyMSGv2/1/Define-XML_2.1.0(IG.LB).Data(LBHE)"
  PriorFileOID="www.cdisc.org/StudyMSGv2/1/Define-XML_2.1.0"
  CreationDateTime="2020-08-21T09:21:13"
  Originator="CDISC MSG Team"
  SourceSystem="M.Hungria-System"
  SourceSystemVersion="2.1-A1"
  >
  <ClinicalData
    StudyOID="cdisc.com/CDISCPILOT01"
    MetaDataVersionOID="MDV.MSGv2.0.SDTMIG.3.3.SDTM.1.7">
    <!-- Dataset (LBHE) -->
    <ItemGroupData ItemGroupOID="IG.LB" data:ItemGroupDataSeq="1">
      <ItemData ItemOID="IT.LB.STUDYID" Value="CDISCPILOT01"/>
      <ItemData ItemOID="IT.LB.DOMAIN" Value="LB"/>
      <ItemData ItemOID="IT.LB.USUBJID" Value="CDISC001"/>
      <ItemData ItemOID="IT.LB.LBSEQ" Value="5"/>
      <ItemData ItemOID="IT.LB.LBTESTCD" Value="BASO"/>
      <ItemData ItemOID="IT.LB.LBTEST" Value="Basophils"/>
      <ItemData ItemOID="IT.LB.LBCAT" Value="HEMATOLOGY"/>
      <ItemData ItemOID="IT.LB.LBORRES" Value="0.03"/>
      <ItemData ItemOID="IT.LB.LBORRESU" Value="10^9/L"/>
      <ItemData ItemOID="IT.LB.LBORNRLO" Value="0"/>
      <ItemData ItemOID="IT.LB.LBORNRHI" Value="0.2"/>
      <ItemData ItemOID="IT.LB.LBSTRESC" Value="0.03"/>
      <ItemData ItemOID="IT.LB.LBSTRESN" Value="0.03"/>
      <ItemData ItemOID="IT.LB.LBSTRESU" Value="10^9/L"/>
      <ItemData ItemOID="IT.LB.LBSTNRLO" Value="0"/>
      <ItemData ItemOID="IT.LB.LBSTNRHI" Value="0.2"/>
      <ItemData ItemOID="IT.LB.LBNRIND" Value="NORMAL"/>
      <ItemData ItemOID="IT.LB.LBLOBXFL" Value="Y"/>
      <ItemData ItemOID="IT.LB.VISITNUM" Value="1"/>
      <ItemData ItemOID="IT.LB.VISIT" Value="SCREENING 1"/>
      <ItemData ItemOID="IT.LB.EPOCH" Value="SCREENING"/>
      <ItemData ItemOID="IT.LB.LBDTC" Value="2012-11-23T11:20"/>
      <ItemData ItemOID="IT.LB.LBDY" Value="-7"/>
    </ItemGroupData>
    <ItemGroupData ItemGroupOID="IG.LB" data:ItemGroupDataSeq="2">
      <ItemData ItemOID="IT.LB.STUDYID" Value="CDISCPILOT01"/>
      <ItemData ItemOID="IT.LB.DOMAIN" Value="LB"/>
      <ItemData ItemOID="IT.LB.USUBJID" Value="CDISC001"/>
      <ItemData ItemOID="IT.LB.LBSEQ" Value="14"/>
      <ItemData ItemOID="IT.LB.LBTESTCD" Value="EOS"/>
      <ItemData ItemOID="IT.LB.LBTEST" Value="Eosinophils"/>
      <ItemData ItemOID="IT.LB.LBCAT" Value="HEMATOLOGY"/>
      <ItemData ItemOID="IT.LB.LBORRES" Value="0.08"/>
      <ItemData ItemOID="IT.LB.LBORRESU" Value="10^9/L"/>
      <ItemData ItemOID="IT.LB.LBORNRLO" Value="0"/>
      <ItemData ItemOID="IT.LB.LBORNRHI" Value="0.57"/>
      <ItemData ItemOID="IT.LB.LBSTRESC" Value="0.08"/>
      <ItemData ItemOID="IT.LB.LBSTRESN" Value="0.08"/>
      <ItemData ItemOID="IT.LB.LBSTRESU" Value="10^9/L"/>
      <ItemData ItemOID="IT.LB.LBSTNRLO" Value="0"/>
      <ItemData ItemOID="IT.LB.LBSTNRHI" Value="0.57"/>
      <ItemData ItemOID="IT.LB.LBNRIND" Value="NORMAL"/>
      <ItemData ItemOID="IT.LB.LBLOBXFL" Value="Y"/>
      <ItemData ItemOID="IT.LB.VISITNUM" Value="1"/>
      <ItemData ItemOID="IT.LB.VISIT" Value="SCREENING 1"/>
      <ItemData ItemOID="IT.LB.EPOCH" Value="SCREENING"/>
      <ItemData ItemOID="IT.LB.LBDTC" Value="2012-11-23T11:20"/>
      <ItemData ItemOID="IT.LB.LBDY" Value="-7"/>
    </ItemGroupData>
    <ItemGroupData ItemGroupOID="IG.LB" data:ItemGroupDataSeq="3">
      <ItemData ItemOID="IT.LB.STUDYID" Value="CDISCPILOT01"/>
      <ItemData ItemOID="IT.LB.DOMAIN" Value="LB"/>
      <ItemData ItemOID="IT.LB.USUBJID" Value="CDISC001"/>
      <ItemData ItemOID="IT.LB.LBSEQ" Value="17"/>
      <ItemData ItemOID="IT.LB.LBTESTCD" Value="HCT"/>
      <ItemData ItemOID="IT.LB.LBTEST" Value="Hematocrit"/>
      <ItemData ItemOID="IT.LB.LBCAT" Value="HEMATOLOGY"/>
      <ItemData ItemOID="IT.LB.LBORRES" Value="46.0"/>
      <ItemData ItemOID="IT.LB.LBORRESU" Value="%"/>
      <ItemData ItemOID="IT.LB.LBORNRLO" Value="37"/>
      <ItemData ItemOID="IT.LB.LBORNRHI" Value="51"/>
      <ItemData ItemOID="IT.LB.LBSTRESC" Value="0.46"/>
      <ItemData ItemOID="IT.LB.LBSTRESN" Value="0.46"/>
      <ItemData ItemOID="IT.LB.LBSTNRLO" Value="0.37"/>
      <ItemData ItemOID="IT.LB.LBSTNRHI" Value="0.51"/>
      <ItemData ItemOID="IT.LB.LBNRIND" Value="NORMAL"/>
      <ItemData ItemOID="IT.LB.LBLOBXFL" Value="Y"/>
      <ItemData ItemOID="IT.LB.VISITNUM" Value="1"/>
      <ItemData ItemOID="IT.LB.VISIT" Value="SCREENING 1"/>
      <ItemData ItemOID="IT.LB.EPOCH" Value="SCREENING"/>
      <ItemData ItemOID="IT.LB.LBDTC" Value="2012-11-23T11:20"/>
      <ItemData ItemOID="IT.LB.LBDY" Value="-7"/>
    </ItemGroupData>
    <ItemGroupData ItemGroupOID="IG.LB" data:ItemGroupDataSeq="4">
      <ItemData ItemOID="IT.LB.STUDYID" Value="CDISCPILOT01"/>
      <ItemData ItemOID="IT.LB.DOMAIN" Value="LB"/>
      <ItemData ItemOID="IT.LB.USUBJID" Value="CDISC001"/>
      <ItemData ItemOID="IT.LB.LBSEQ" Value="18"/>
      <ItemData ItemOID="IT.LB.LBTESTCD" Value="HGB"/>
      <ItemData ItemOID="IT.LB.LBTEST" Value="Hemoglobin"/>
      <ItemData ItemOID="IT.LB.LBCAT" Value="HEMATOLOGY"/>
      <ItemData ItemOID="IT.LB.LBORRES" Value="14.9"/>
      <ItemData ItemOID="IT.LB.LBORRESU" Value="g/dL"/>
      <ItemData ItemOID="IT.LB.LBORNRLO" Value="12.5"/>
      <ItemData ItemOID="IT.LB.LBORNRHI" Value="17"/>
      <ItemData ItemOID="IT.LB.LBSTRESC" Value="9.24694"/>
      <ItemData ItemOID="IT.LB.LBSTRESN" Value="9.24694"/>
      <ItemData ItemOID="IT.LB.LBSTRESU" Value="mmol/L"/>
      <ItemData ItemOID="IT.LB.LBSTNRLO" Value="7.76"/>
      <ItemData ItemOID="IT.LB.LBSTNRHI" Value="10.55"/>
      <ItemData ItemOID="IT.LB.LBNRIND" Value="NORMAL"/>
      <ItemData ItemOID="IT.LB.LBLOBXFL" Value="Y"/>
      <ItemData ItemOID="IT.LB.VISITNUM" Value="1"/>
      <ItemData ItemOID="IT.LB.VISIT" Value="SCREENING 1"/>
      <ItemData ItemOID="IT.LB.EPOCH" Value="SCREENING"/>
      <ItemData ItemOID="IT.LB.LBDTC" Value="2012-11-23T11:20"/>
      <ItemData ItemOID="IT.LB.LBDY" Value="-7"/>
    </ItemGroupData>
    <ItemGroupData ItemGroupOID="IG.LB" data:ItemGroupDataSeq="5">
      <ItemData ItemOID="IT.LB.STUDYID" Value="CDISCPILOT01"/>
      <ItemData ItemOID="IT.LB.DOMAIN" Value="LB"/>
      <ItemData ItemOID="IT.LB.USUBJID" Value="CDISC001"/>
      <ItemData ItemOID="IT.LB.LBSEQ" Value="21"/>
      <ItemData ItemOID="IT.LB.LBTESTCD" Value="LYM"/>
      <ItemData ItemOID="IT.LB.LBTEST" Value="Lymphocytes"/>
      <ItemData ItemOID="IT.LB.LBCAT" Value="HEMATOLOGY"/>
      <ItemData ItemOID="IT.LB.LBORRES" Value="1.20"/>
      <ItemData ItemOID="IT.LB.LBORRESU" Value="10^9/L"/>
      <ItemData ItemOID="IT.LB.LBORNRLO" Value="0.8"/>
      <ItemData ItemOID="IT.LB.LBORNRHI" Value="3"/>
      <ItemData ItemOID="IT.LB.LBSTRESC" Value="1.2"/>
      <ItemData ItemOID="IT.LB.LBSTRESN" Value="1.2"/>
      <ItemData ItemOID="IT.LB.LBSTRESU" Value="10^9/L"/>
      <ItemData ItemOID="IT.LB.LBSTNRLO" Value="0.8"/>
      <ItemData ItemOID="IT.LB.LBSTNRHI" Value="3"/>
      <ItemData ItemOID="IT.LB.LBNRIND" Value="NORMAL"/>
      <ItemData ItemOID="IT.LB.LBLOBXFL" Value="Y"/>
      <ItemData ItemOID="IT.LB.VISITNUM" Value="1"/>
      <ItemData ItemOID="IT.LB.VISIT" Value="SCREENING 1"/>
      <ItemData ItemOID="IT.LB.EPOCH" Value="SCREENING"/>
      <ItemData ItemOID="IT.LB.LBDTC" Value="2012-11-23T11:20"/>
      <ItemData ItemOID="IT.LB.LBDY" Value="-7"/>
    </ItemGroupData>
    <ItemGroupData ItemGroupOID="IG.LB" data:ItemGroupDataSeq="6">
      <ItemData ItemOID="IT.LB.STUDYID" Value="CDISCPILOT01"/>
      <ItemData ItemOID="IT.LB.DOMAIN" Value="LB"/>
      <ItemData ItemOID="IT.LB.USUBJID" Value="CDISC001"/>
      <ItemData ItemOID="IT.LB.LBSEQ" Value="22"/>
      <ItemData ItemOID="IT.LB.LBTESTCD" Value="MCH"/>
      <ItemData ItemOID="IT.LB.LBTEST" Value="Ery. Mean Corpuscular Hemoglobin"/>
      <ItemData ItemOID="IT.LB.LBCAT" Value="HEMATOLOGY"/>
      <ItemData ItemOID="IT.LB.LBORRES" Value="30"/>
      <ItemData ItemOID="IT.LB.LBORRESU" Value="pg"/>
      <ItemData ItemOID="IT.LB.LBORNRLO" Value="26"/>
      <ItemData ItemOID="IT.LB.LBORNRHI" Value="34"/>
      <ItemData ItemOID="IT.LB.LBSTRESC" Value="1.8618"/>
      <ItemData ItemOID="IT.LB.LBSTRESN" Value="1.8618"/>
      <ItemData ItemOID="IT.LB.LBSTRESU" Value="fmol"/>
      <ItemData ItemOID="IT.LB.LBSTNRLO" Value="1.6"/>
      <ItemData ItemOID="IT.LB.LBSTNRHI" Value="2.1"/>
      <ItemData ItemOID="IT.LB.LBNRIND" Value="NORMAL"/>
      <ItemData ItemOID="IT.LB.LBLOBXFL" Value="Y"/>
      <ItemData ItemOID="IT.LB.VISITNUM" Value="1"/>
      <ItemData ItemOID="IT.LB.VISIT" Value="SCREENING 1"/>
      <ItemData ItemOID="IT.LB.EPOCH" Value="SCREENING"/>
      <ItemData ItemOID="IT.LB.LBDTC" Value="2012-11-23T11:20"/>
      <ItemData ItemOID="IT.LB.LBDY" Value="-7"/>
    </ItemGroupData>
    <ItemGroupData ItemGroupOID="IG.LB" data:ItemGroupDataSeq="7">
      <ItemData ItemOID="IT.LB.STUDYID" Value="CDISCPILOT01"/>
      <ItemData ItemOID="IT.LB.DOMAIN" Value="LB"/>
      <ItemData ItemOID="IT.LB.USUBJID" Value="CDISC001"/>
      <ItemData ItemOID="IT.LB.LBSEQ" Value="23"/>
      <ItemData ItemOID="IT.LB.LBTESTCD" Value="MCHC"/>
      <ItemData ItemOID="IT.LB.LBTEST" Value="Ery. Mean Corpuscular HGB Concentration"/>
      <ItemData ItemOID="IT.LB.LBCAT" Value="HEMATOLOGY"/>
      <ItemData ItemOID="IT.LB.LBORRES" Value="33"/>
      <ItemData ItemOID="IT.LB.LBORRESU" Value="g/dL"/>
      <ItemData ItemOID="IT.LB.LBORNRLO" Value="31"/>
      <ItemData ItemOID="IT.LB.LBORNRHI" Value="38"/>
      <ItemData ItemOID="IT.LB.LBSTRESC" Value="20.4798"/>
      <ItemData ItemOID="IT.LB.LBSTRESN" Value="20.4798"/>
      <ItemData ItemOID="IT.LB.LBSTRESU" Value="mmol/L"/>
      <ItemData ItemOID="IT.LB.LBSTNRLO" Value="19"/>
      <ItemData ItemOID="IT.LB.LBSTNRHI" Value="24"/>
      <ItemData ItemOID="IT.LB.LBNRIND" Value="NORMAL"/>
      <ItemData ItemOID="IT.LB.LBLOBXFL" Value="Y"/>
      <ItemData ItemOID="IT.LB.VISITNUM" Value="1"/>
      <ItemData ItemOID="IT.LB.VISIT" Value="SCREENING 1"/>
      <ItemData ItemOID="IT.LB.EPOCH" Value="SCREENING"/>
      <ItemData ItemOID="IT.LB.LBDTC" Value="2012-11-23T11:20"/>
      <ItemData ItemOID="IT.LB.LBDY" Value="-7"/>
    </ItemGroupData>
    <ItemGroupData ItemGroupOID="IG.LB" data:ItemGroupDataSeq="8">
      <ItemData ItemOID="IT.LB.STUDYID" Value="CDISCPILOT01"/>
      <ItemData ItemOID="IT.LB.DOMAIN" Value="LB"/>
      <ItemData ItemOID="IT.LB.USUBJID" Value="CDISC001"/>
      <ItemData ItemOID="IT.LB.LBSEQ" Value="24"/>
      <ItemData ItemOID="IT.LB.LBTESTCD" Value="MCV"/>
      <ItemData ItemOID="IT.LB.LBTEST" Value="Ery. Mean Corpuscular Volume"/>
      <ItemData ItemOID="IT.LB.LBCAT" Value="HEMATOLOGY"/>
      <ItemData ItemOID="IT.LB.LBORRES" Value="92"/>
      <ItemData ItemOID="IT.LB.LBORRESU" Value="fL"/>
      <ItemData ItemOID="IT.LB.LBORNRLO" Value="80"/>
      <ItemData ItemOID="IT.LB.LBORNRHI" Value="100"/>
      <ItemData ItemOID="IT.LB.LBSTRESC" Value="92"/>
      <ItemData ItemOID="IT.LB.LBSTRESN" Value="92"/>
      <ItemData ItemOID="IT.LB.LBSTRESU" Value="fL"/>
      <ItemData ItemOID="IT.LB.LBSTNRLO" Value="80"/>
      <ItemData ItemOID="IT.LB.LBSTNRHI" Value="100"/>
      <ItemData ItemOID="IT.LB.LBNRIND" Value="NORMAL"/>
      <ItemData ItemOID="IT.LB.LBLOBXFL" Value="Y"/>
      <ItemData ItemOID="IT.LB.VISITNUM" Value="1"/>
      <ItemData ItemOID="IT.LB.VISIT" Value="SCREENING 1"/>
      <ItemData ItemOID="IT.LB.EPOCH" Value="SCREENING"/>
      <ItemData ItemOID="IT.LB.LBDTC" Value="2012-11-23T11:20"/>
      <ItemData ItemOID="IT.LB.LBDY" Value="-7"/>
    </ItemGroupData>
    <ItemGroupData ItemGroupOID="IG.LB" data:ItemGroupDataSeq="9">
      <ItemData ItemOID="IT.LB.STUDYID" Value="CDISCPILOT01"/>
      <ItemData ItemOID="IT.LB.DOMAIN" Value="LB"/>
      <ItemData ItemOID="IT.LB.USUBJID" Value="CDISC001"/>
      <ItemData ItemOID="IT.LB.LBSEQ" Value="25"/>
      <ItemData ItemOID="IT.LB.LBTESTCD" Value="MONO"/>
      <ItemData ItemOID="IT.LB.LBTEST" Value="Monocytes"/>
      <ItemData ItemOID="IT.LB.LBCAT" Value="HEMATOLOGY"/>
      <ItemData ItemOID="IT.LB.LBORRES" Value="0.38"/>
      <ItemData ItemOID="IT.LB.LBORRESU" Value="10^9/L"/>
      <ItemData ItemOID="IT.LB.LBORNRLO" Value="0.12"/>
      <ItemData ItemOID="IT.LB.LBORNRHI" Value="0.92"/>
      <ItemData ItemOID="IT.LB.LBSTRESC" Value="0.38"/>
      <ItemData ItemOID="IT.LB.LBSTRESN" Value="0.38"/>
      <ItemData ItemOID="IT.LB.LBSTRESU" Value="10^9/L"/>
      <ItemData ItemOID="IT.LB.LBSTNRLO" Value="0.12"/>
      <ItemData ItemOID="IT.LB.LBSTNRHI" Value="0.92"/>
      <ItemData ItemOID="IT.LB.LBNRIND" Value="NORMAL"/>
      <ItemData ItemOID="IT.LB.LBLOBXFL" Value="Y"/>
      <ItemData ItemOID="IT.LB.VISITNUM" Value="1"/>
      <ItemData ItemOID="IT.LB.VISIT" Value="SCREENING 1"/>
      <ItemData ItemOID="IT.LB.EPOCH" Value="SCREENING"/>
      <ItemData ItemOID="IT.LB.LBDTC" Value="2012-11-23T11:20"/>
      <ItemData ItemOID="IT.LB.LBDY" Value="-7"/>
    </ItemGroupData>
    <ItemGroupData ItemGroupOID="IG.LB" data:ItemGroupDataSeq="10">
      <ItemData ItemOID="IT.LB.STUDYID" Value="CDISCPILOT01"/>
      <ItemData ItemOID="IT.LB.DOMAIN" Value="LB"/>
      <ItemData ItemOID="IT.LB.USUBJID" Value="CDISC001"/>
      <ItemData ItemOID="IT.LB.LBSEQ" Value="29"/>
      <ItemData ItemOID="IT.LB.LBTESTCD" Value="PLAT"/>
      <ItemData ItemOID="IT.LB.LBTEST" Value="Platelets"/>
      <ItemData ItemOID="IT.LB.LBCAT" Value="HEMATOLOGY"/>
      <ItemData ItemOID="IT.LB.LBORRES" Value="150"/>
      <ItemData ItemOID="IT.LB.LBORRESU" Value="10^9/L"/>
      <ItemData ItemOID="IT.LB.LBORNRLO" Value="130"/>
      <ItemData ItemOID="IT.LB.LBORNRHI" Value="394"/>
      <ItemData ItemOID="IT.LB.LBSTRESC" Value="150"/>
      <ItemData ItemOID="IT.LB.LBSTRESN" Value="150"/>
      <ItemData ItemOID="IT.LB.LBSTRESU" Value="10^9/L"/>
      <ItemData ItemOID="IT.LB.LBSTNRLO" Value="130"/>
      <ItemData ItemOID="IT.LB.LBSTNRHI" Value="394"/>
      <ItemData ItemOID="IT.LB.LBNRIND" Value="NORMAL"/>
      <ItemData ItemOID="IT.LB.LBLOBXFL" Value="Y"/>
      <ItemData ItemOID="IT.LB.VISITNUM" Value="1"/>
      <ItemData ItemOID="IT.LB.VISIT" Value="SCREENING 1"/>
      <ItemData ItemOID="IT.LB.EPOCH" Value="SCREENING"/>
      <ItemData ItemOID="IT.LB.LBDTC" Value="2012-11-23T11:20"/>
      <ItemData ItemOID="IT.LB.LBDY" Value="-7"/>
    </ItemGroupData>
    <ItemGroupData ItemGroupOID="IG.LB" data:ItemGroupDataSeq="11">
      <ItemData ItemOID="IT.LB.STUDYID" Value="CDISCPILOT01"/>
      <ItemData ItemOID="IT.LB.DOMAIN" Value="LB"/>
      <ItemData ItemOID="IT.LB.USUBJID" Value="CDISC001"/>
      <ItemData ItemOID="IT.LB.LBSEQ" Value="31"/>
      <ItemData ItemOID="IT.LB.LBTESTCD" Value="RBC"/>
      <ItemData ItemOID="IT.LB.LBTEST" Value="Erythrocytes"/>
      <ItemData ItemOID="IT.LB.LBCAT" Value="HEMATOLOGY"/>
      <ItemData ItemOID="IT.LB.LBORRES" Value="5.00"/>
      <ItemData ItemOID="IT.LB.LBORRESU" Value="10^12/L"/>
      <ItemData ItemOID="IT.LB.LBORNRLO" Value="4"/>
      <ItemData ItemOID="IT.LB.LBORNRHI" Value="5.8"/>
      <ItemData ItemOID="IT.LB.LBSTRESC" Value="5"/>
      <ItemData ItemOID="IT.LB.LBSTRESN" Value="5"/>
      <ItemData ItemOID="IT.LB.LBSTRESU" Value="10^12/L"/>
      <ItemData ItemOID="IT.LB.LBSTNRLO" Value="4"/>
      <ItemData ItemOID="IT.LB.LBSTNRHI" Value="5.8"/>
      <ItemData ItemOID="IT.LB.LBNRIND" Value="NORMAL"/>
      <ItemData ItemOID="IT.LB.LBLOBXFL" Value="Y"/>
      <ItemData ItemOID="IT.LB.VISITNUM" Value="1"/>
      <ItemData ItemOID="IT.LB.VISIT" Value="SCREENING 1"/>
      <ItemData ItemOID="IT.LB.EPOCH" Value="SCREENING"/>
      <ItemData ItemOID="IT.LB.LBDTC" Value="2012-11-23T11:20"/>
      <ItemData ItemOID="IT.LB.LBDY" Value="-7"/>
    </ItemGroupData>
    <ItemGroupData ItemGroupOID="IG.LB" data:ItemGroupDataSeq="12">
      <ItemData ItemOID="IT.LB.STUDYID" Value="CDISCPILOT01"/>
      <ItemData ItemOID="IT.LB.DOMAIN" Value="LB"/>
      <ItemData ItemOID="IT.LB.USUBJID" Value="CDISC001"/>
      <ItemData ItemOID="IT.LB.LBSEQ" Value="37"/>
      <ItemData ItemOID="IT.LB.LBTESTCD" Value="WBC"/>
      <ItemData ItemOID="IT.LB.LBTEST" Value="Leukocytes"/>
      <ItemData ItemOID="IT.LB.LBCAT" Value="HEMATOLOGY"/>
      <ItemData ItemOID="IT.LB.LBORRES" Value="4.99"/>
      <ItemData ItemOID="IT.LB.LBORRESU" Value="10^9/L"/>
      <ItemData ItemOID="IT.LB.LBORNRLO" Value="3.8"/>
      <ItemData ItemOID="IT.LB.LBORNRHI" Value="10.7"/>
      <ItemData ItemOID="IT.LB.LBSTRESC" Value="4.99"/>
      <ItemData ItemOID="IT.LB.LBSTRESN" Value="4.99"/>
      <ItemData ItemOID="IT.LB.LBSTRESU" Value="10^9/L"/>
      <ItemData ItemOID="IT.LB.LBSTNRLO" Value="3.8"/>
      <ItemData ItemOID="IT.LB.LBSTNRHI" Value="10.7"/>
      <ItemData ItemOID="IT.LB.LBNRIND" Value="NORMAL"/>
      <ItemData ItemOID="IT.LB.LBLOBXFL" Value="Y"/>
      <ItemData ItemOID="IT.LB.VISITNUM" Value="1"/>
      <ItemData ItemOID="IT.LB.VISIT" Value="SCREENING 1"/>
      <ItemData ItemOID="IT.LB.EPOCH" Value="SCREENING"/>
      <ItemData ItemOID="IT.LB.LBDTC" Value="2012-11-23T11:20"/>
      <ItemData ItemOID="IT.LB.LBDY" Value="-7"/>
    </ItemGroupData>
    <ItemGroupData ItemGroupOID="IG.LB" data:ItemGroupDataSeq="13">
      <ItemData ItemOID="IT.LB.STUDYID" Value="CDISCPILOT01"/>
      <ItemData ItemOID="IT.LB.DOMAIN" Value="LB"/>
      <ItemData ItemOID="IT.LB.USUBJID" Value="CDISC001"/>
      <ItemData ItemOID="IT.LB.LBSEQ" Value="42"/>
      <ItemData ItemOID="IT.LB.LBTESTCD" Value="BASO"/>
      <ItemData ItemOID="IT.LB.LBTEST" Value="Basophils"/>
      <ItemData ItemOID="IT.LB.LBCAT" Value="HEMATOLOGY"/>
      <ItemData ItemOID="IT.LB.LBORRES" Value="0.04"/>
      <ItemData ItemOID="IT.LB.LBORRESU" Value="10^9/L"/>
      <ItemData ItemOID="IT.LB.LBORNRLO" Value="0"/>
      <ItemData ItemOID="IT.LB.LBORNRHI" Value="0.2"/>
      <ItemData ItemOID="IT.LB.LBSTRESC" Value="0.04"/>
      <ItemData ItemOID="IT.LB.LBSTRESN" Value="0.04"/>
      <ItemData ItemOID="IT.LB.LBSTRESU" Value="10^9/L"/>
      <ItemData ItemOID="IT.LB.LBSTNRLO" Value="0"/>
      <ItemData ItemOID="IT.LB.LBSTNRHI" Value="0.2"/>
      <ItemData ItemOID="IT.LB.LBNRIND" Value="NORMAL"/>
      <ItemData ItemOID="IT.LB.VISITNUM" Value="4"/>
      <ItemData ItemOID="IT.LB.VISIT" Value="WEEK 2"/>
      <ItemData ItemOID="IT.LB.EPOCH" Value="TREATMENT"/>
      <ItemData ItemOID="IT.LB.LBDTC" Value="2012-12-13T14:05"/>
      <ItemData ItemOID="IT.LB.LBDY" Value="14"/>
    </ItemGroupData>
    <ItemGroupData ItemGroupOID="IG.LB" data:ItemGroupDataSeq="14">
      <ItemData ItemOID="IT.LB.STUDYID" Value="CDISCPILOT01"/>
      <ItemData ItemOID="IT.LB.DOMAIN" Value="LB"/>
      <ItemData ItemOID="IT.LB.USUBJID" Value="CDISC001"/>
      <ItemData ItemOID="IT.LB.LBSEQ" Value="51"/>
      <ItemData ItemOID="IT.LB.LBTESTCD" Value="EOS"/>
      <ItemData ItemOID="IT.LB.LBTEST" Value="Eosinophils"/>
      <ItemData ItemOID="IT.LB.LBCAT" Value="HEMATOLOGY"/>
      <ItemData ItemOID="IT.LB.LBORRES" Value="0.08"/>
      <ItemData ItemOID="IT.LB.LBORRESU" Value="10^9/L"/>
      <ItemData ItemOID="IT.LB.LBORNRLO" Value="0"/>
      <ItemData ItemOID="IT.LB.LBORNRHI" Value="0.57"/>
      <ItemData ItemOID="IT.LB.LBSTRESC" Value="0.08"/>
      <ItemData ItemOID="IT.LB.LBSTRESN" Value="0.08"/>
      <ItemData ItemOID="IT.LB.LBSTRESU" Value="10^9/L"/>
      <ItemData ItemOID="IT.LB.LBSTNRLO" Value="0"/>
      <ItemData ItemOID="IT.LB.LBSTNRHI" Value="0.57"/>
      <ItemData ItemOID="IT.LB.LBNRIND" Value="NORMAL"/>
      <ItemData ItemOID="IT.LB.VISITNUM" Value="4"/>
      <ItemData ItemOID="IT.LB.VISIT" Value="WEEK 2"/>
      <ItemData ItemOID="IT.LB.EPOCH" Value="TREATMENT"/>
      <ItemData ItemOID="IT.LB.LBDTC" Value="2012-12-13T14:05"/>
      <ItemData ItemOID="IT.LB.LBDY" Value="14"/>
    </ItemGroupData>
    <ItemGroupData ItemGroupOID="IG.LB" data:ItemGroupDataSeq="15">
      <ItemData ItemOID="IT.LB.STUDYID" Value="CDISCPILOT01"/>
      <ItemData ItemOID="IT.LB.DOMAIN" Value="LB"/>
      <ItemData ItemOID="IT.LB.USUBJID" Value="CDISC001"/>
      <ItemData ItemOID="IT.LB.LBSEQ" Value="54"/>
      <ItemData ItemOID="IT.LB.LBTESTCD" Value="HCT"/>
      <ItemData ItemOID="IT.LB.LBTEST" Value="Hematocrit"/>
      <ItemData ItemOID="IT.LB.LBCAT" Value="HEMATOLOGY"/>
      <ItemData ItemOID="IT.LB.LBORRES" Value="45.0"/>
      <ItemData ItemOID="IT.LB.LBORRESU" Value="%"/>
      <ItemData ItemOID="IT.LB.LBORNRLO" Value="37"/>
      <ItemData ItemOID="IT.LB.LBORNRHI" Value="51"/>
      <ItemData ItemOID="IT.LB.LBSTRESC" Value="0.45"/>
      <ItemData ItemOID="IT.LB.LBSTRESN" Value="0.45"/>
      <ItemData ItemOID="IT.LB.LBSTNRLO" Value="0.37"/>
      <ItemData ItemOID="IT.LB.LBSTNRHI" Value="0.51"/>
      <ItemData ItemOID="IT.LB.LBNRIND" Value="NORMAL"/>
      <ItemData ItemOID="IT.LB.VISITNUM" Value="4"/>
      <ItemData ItemOID="IT.LB.VISIT" Value="WEEK 2"/>
      <ItemData ItemOID="IT.LB.EPOCH" Value="TREATMENT"/>
      <ItemData ItemOID="IT.LB.LBDTC" Value="2012-12-13T14:05"/>
      <ItemData ItemOID="IT.LB.LBDY" Value="14"/>
    </ItemGroupData>
    <ItemGroupData ItemGroupOID="IG.LB" data:ItemGroupDataSeq="16">
      <ItemData ItemOID="IT.LB.STUDYID" Value="CDISCPILOT01"/>
      <ItemData ItemOID="IT.LB.DOMAIN" Value="LB"/>
      <ItemData ItemOID="IT.LB.USUBJID" Value="CDISC001"/>
      <ItemData ItemOID="IT.LB.LBSEQ" Value="55"/>
      <ItemData ItemOID="IT.LB.LBTESTCD" Value="HGB"/>
      <ItemData ItemOID="IT.LB.LBTEST" Value="Hemoglobin"/>
      <ItemData ItemOID="IT.LB.LBCAT" Value="HEMATOLOGY"/>
      <ItemData ItemOID="IT.LB.LBORRES" Value="14.6"/>
      <ItemData ItemOID="IT.LB.LBORRESU" Value="g/dL"/>
      <ItemData ItemOID="IT.LB.LBORNRLO" Value="12.5"/>
      <ItemData ItemOID="IT.LB.LBORNRHI" Value="17"/>
      <ItemData ItemOID="IT.LB.LBSTRESC" Value="9.06076"/>
      <ItemData ItemOID="IT.LB.LBSTRESN" Value="9.06076"/>
      <ItemData ItemOID="IT.LB.LBSTRESU" Value="mmol/L"/>
      <ItemData ItemOID="IT.LB.LBSTNRLO" Value="7.76"/>
      <ItemData ItemOID="IT.LB.LBSTNRHI" Value="10.55"/>
      <ItemData ItemOID="IT.LB.LBNRIND" Value="NORMAL"/>
      <ItemData ItemOID="IT.LB.VISITNUM" Value="4"/>
      <ItemData ItemOID="IT.LB.VISIT" Value="WEEK 2"/>
      <ItemData ItemOID="IT.LB.EPOCH" Value="TREATMENT"/>
      <ItemData ItemOID="IT.LB.LBDTC" Value="2012-12-13T14:05"/>
      <ItemData ItemOID="IT.LB.LBDY" Value="14"/>
    </ItemGroupData>
    <ItemGroupData ItemGroupOID="IG.LB" data:ItemGroupDataSeq="17">
      <ItemData ItemOID="IT.LB.STUDYID" Value="CDISCPILOT01"/>
      <ItemData ItemOID="IT.LB.DOMAIN" Value="LB"/>
      <ItemData ItemOID="IT.LB.USUBJID" Value="CDISC001"/>
      <ItemData ItemOID="IT.LB.LBSEQ" Value="58"/>
      <ItemData ItemOID="IT.LB.LBTESTCD" Value="LYM"/>
      <ItemData ItemOID="IT.LB.LBTEST" Value="Lymphocytes"/>
      <ItemData ItemOID="IT.LB.LBCAT" Value="HEMATOLOGY"/>
      <ItemData ItemOID="IT.LB.LBORRES" Value="1.48"/>
      <ItemData ItemOID="IT.LB.LBORRESU" Value="10^9/L"/>
      <ItemData ItemOID="IT.LB.LBORNRLO" Value="0.8"/>
      <ItemData ItemOID="IT.LB.LBORNRHI" Value="3"/>
      <ItemData ItemOID="IT.LB.LBSTRESC" Value="1.48"/>
      <ItemData ItemOID="IT.LB.LBSTRESN" Value="1.48"/>
      <ItemData ItemOID="IT.LB.LBSTRESU" Value="10^9/L"/>
      <ItemData ItemOID="IT.LB.LBSTNRLO" Value="0.8"/>
      <ItemData ItemOID="IT.LB.LBSTNRHI" Value="3"/>
      <ItemData ItemOID="IT.LB.LBNRIND" Value="NORMAL"/>
      <ItemData ItemOID="IT.LB.VISITNUM" Value="4"/>
      <ItemData ItemOID="IT.LB.VISIT" Value="WEEK 2"/>
      <ItemData ItemOID="IT.LB.EPOCH" Value="TREATMENT"/>
      <ItemData ItemOID="IT.LB.LBDTC" Value="2012-12-13T14:05"/>
      <ItemData ItemOID="IT.LB.LBDY" Value="14"/>
    </ItemGroupData>
    <ItemGroupData ItemGroupOID="IG.LB" data:ItemGroupDataSeq="18">
      <ItemData ItemOID="IT.LB.STUDYID" Value="CDISCPILOT01"/>
      <ItemData ItemOID="IT.LB.DOMAIN" Value="LB"/>
      <ItemData ItemOID="IT.LB.USUBJID" Value="CDISC001"/>
      <ItemData ItemOID="IT.LB.LBSEQ" Value="59"/>
      <ItemData ItemOID="IT.LB.LBTESTCD" Value="MCH"/>
      <ItemData ItemOID="IT.LB.LBTEST" Value="Ery. Mean Corpuscular Hemoglobin"/>
      <ItemData ItemOID="IT.LB.LBCAT" Value="HEMATOLOGY"/>
      <ItemData ItemOID="IT.LB.LBORRES" Value="31"/>
      <ItemData ItemOID="IT.LB.LBORRESU" Value="pg"/>
      <ItemData ItemOID="IT.LB.LBORNRLO" Value="26"/>
      <ItemData ItemOID="IT.LB.LBORNRHI" Value="34"/>
      <ItemData ItemOID="IT.LB.LBSTRESC" Value="1.92386"/>
      <ItemData ItemOID="IT.LB.LBSTRESN" Value="1.92386"/>
      <ItemData ItemOID="IT.LB.LBSTRESU" Value="fmol"/>
      <ItemData ItemOID="IT.LB.LBSTNRLO" Value="1.6"/>
      <ItemData ItemOID="IT.LB.LBSTNRHI" Value="2.1"/>
      <ItemData ItemOID="IT.LB.LBNRIND" Value="NORMAL"/>
      <ItemData ItemOID="IT.LB.VISITNUM" Value="4"/>
      <ItemData ItemOID="IT.LB.VISIT" Value="WEEK 2"/>
      <ItemData ItemOID="IT.LB.EPOCH" Value="TREATMENT"/>
      <ItemData ItemOID="IT.LB.LBDTC" Value="2012-12-13T14:05"/>
      <ItemData ItemOID="IT.LB.LBDY" Value="14"/>
    </ItemGroupData>
    <ItemGroupData ItemGroupOID="IG.LB" data:ItemGroupDataSeq="19">
      <ItemData ItemOID="IT.LB.STUDYID" Value="CDISCPILOT01"/>
      <ItemData ItemOID="IT.LB.DOMAIN" Value="LB"/>
      <ItemData ItemOID="IT.LB.USUBJID" Value="CDISC001"/>
      <ItemData ItemOID="IT.LB.LBSEQ" Value="60"/>
      <ItemData ItemOID="IT.LB.LBTESTCD" Value="MCHC"/>
      <ItemData ItemOID="IT.LB.LBTEST" Value="Ery. Mean Corpuscular HGB Concentration"/>
      <ItemData ItemOID="IT.LB.LBCAT" Value="HEMATOLOGY"/>
      <ItemData ItemOID="IT.LB.LBORRES" Value="33"/>
      <ItemData ItemOID="IT.LB.LBORRESU" Value="g/dL"/>
      <ItemData ItemOID="IT.LB.LBORNRLO" Value="31"/>
      <ItemData ItemOID="IT.LB.LBORNRHI" Value="38"/>
      <ItemData ItemOID="IT.LB.LBSTRESC" Value="20.4798"/>
      <ItemData ItemOID="IT.LB.LBSTRESN" Value="20.4798"/>
      <ItemData ItemOID="IT.LB.LBSTRESU" Value="mmol/L"/>
      <ItemData ItemOID="IT.LB.LBSTNRLO" Value="19"/>
      <ItemData ItemOID="IT.LB.LBSTNRHI" Value="24"/>
      <ItemData ItemOID="IT.LB.LBNRIND" Value="NORMAL"/>
      <ItemData ItemOID="IT.LB.VISITNUM" Value="4"/>
      <ItemData ItemOID="IT.LB.VISIT" Value="WEEK 2"/>
      <ItemData ItemOID="IT.LB.EPOCH" Value="TREATMENT"/>
      <ItemData ItemOID="IT.LB.LBDTC" Value="2012-12-13T14:05"/>
      <ItemData ItemOID="IT.LB.LBDY" Value="14"/>
    </ItemGroupData>
    <ItemGroupData ItemGroupOID="IG.LB" data:ItemGroupDataSeq="20">
      <ItemData ItemOID="IT.LB.STUDYID" Value="CDISCPILOT01"/>
      <ItemData ItemOID="IT.LB.DOMAIN" Value="LB"/>
      <ItemData ItemOID="IT.LB.USUBJID" Value="CDISC001"/>
      <ItemData ItemOID="IT.LB.LBSEQ" Value="61"/>
      <ItemData ItemOID="IT.LB.LBTESTCD" Value="MCV"/>
      <ItemData ItemOID="IT.LB.LBTEST" Value="Ery. Mean Corpuscular Volume"/>
      <ItemData ItemOID="IT.LB.LBCAT" Value="HEMATOLOGY"/>
      <ItemData ItemOID="IT.LB.LBORRES" Value="96"/>
      <ItemData ItemOID="IT.LB.LBORRESU" Value="fL"/>
      <ItemData ItemOID="IT.LB.LBORNRLO" Value="80"/>
      <ItemData ItemOID="IT.LB.LBORNRHI" Value="100"/>
      <ItemData ItemOID="IT.LB.LBSTRESC" Value="96"/>
      <ItemData ItemOID="IT.LB.LBSTRESN" Value="96"/>
      <ItemData ItemOID="IT.LB.LBSTRESU" Value="fL"/>
      <ItemData ItemOID="IT.LB.LBSTNRLO" Value="80"/>
      <ItemData ItemOID="IT.LB.LBSTNRHI" Value="100"/>
      <ItemData ItemOID="IT.LB.LBNRIND" Value="NORMAL"/>
      <ItemData ItemOID="IT.LB.VISITNUM" Value="4"/>
      <ItemData ItemOID="IT.LB.VISIT" Value="WEEK 2"/>
      <ItemData ItemOID="IT.LB.EPOCH" Value="TREATMENT"/>
      <ItemData ItemOID="IT.LB.LBDTC" Value="2012-12-13T14:05"/>
      <ItemData ItemOID="IT.LB.LBDY" Value="14"/>
    </ItemGroupData>
    <ItemGroupData ItemGroupOID="IG.LB" data:ItemGroupDataSeq="21">
      <ItemData ItemOID="IT.LB.STUDYID" Value="CDISCPILOT01"/>
      <ItemData ItemOID="IT.LB.DOMAIN" Value="LB"/>
      <ItemData ItemOID="IT.LB.USUBJID" Value="CDISC001"/>
      <ItemData ItemOID="IT.LB.LBSEQ" Value="62"/>
      <ItemData ItemOID="IT.LB.LBTESTCD" Value="MONO"/>
      <ItemData ItemOID="IT.LB.LBTEST" Value="Monocytes"/>
      <ItemData ItemOID="IT.LB.LBCAT" Value="HEMATOLOGY"/>
      <ItemData ItemOID="IT.LB.LBORRES" Value="0.36"/>
      <ItemData ItemOID="IT.LB.LBORRESU" Value="10^9/L"/>
      <ItemData ItemOID="IT.LB.LBORNRLO" Value="0.12"/>
      <ItemData ItemOID="IT.LB.LBORNRHI" Value="0.92"/>
      <ItemData ItemOID="IT.LB.LBSTRESC" Value="0.36"/>
      <ItemData ItemOID="IT.LB.LBSTRESN" Value="0.36"/>
      <ItemData ItemOID="IT.LB.LBSTRESU" Value="10^9/L"/>
      <ItemData ItemOID="IT.LB.LBSTNRLO" Value="0.12"/>
      <ItemData ItemOID="IT.LB.LBSTNRHI" Value="0.92"/>
      <ItemData ItemOID="IT.LB.LBNRIND" Value="NORMAL"/>
      <ItemData ItemOID="IT.LB.VISITNUM" Value="4"/>
      <ItemData ItemOID="IT.LB.VISIT" Value="WEEK 2"/>
      <ItemData ItemOID="IT.LB.EPOCH" Value="TREATMENT"/>
      <ItemData ItemOID="IT.LB.LBDTC" Value="2012-12-13T14:05"/>
      <ItemData ItemOID="IT.LB.LBDY" Value="14"/>
    </ItemGroupData>
    <ItemGroupData ItemGroupOID="IG.LB" data:ItemGroupDataSeq="22">
      <ItemData ItemOID="IT.LB.STUDYID" Value="CDISCPILOT01"/>
      <ItemData ItemOID="IT.LB.DOMAIN" Value="LB"/>
      <ItemData ItemOID="IT.LB.USUBJID" Value="CDISC001"/>
      <ItemData ItemOID="IT.LB.LBSEQ" Value="66"/>
      <ItemData ItemOID="IT.LB.LBTESTCD" Value="PLAT"/>
      <ItemData ItemOID="IT.LB.LBTEST" Value="Platelets"/>
      <ItemData ItemOID="IT.LB.LBCAT" Value="HEMATOLOGY"/>
      <ItemData ItemOID="IT.LB.LBORRES" Value="190"/>
      <ItemData ItemOID="IT.LB.LBORRESU" Value="10^9/L"/>
      <ItemData ItemOID="IT.LB.LBORNRLO" Value="130"/>
      <ItemData ItemOID="IT.LB.LBORNRHI" Value="394"/>
      <ItemData ItemOID="IT.LB.LBSTRESC" Value="190"/>
      <ItemData ItemOID="IT.LB.LBSTRESN" Value="190"/>
      <ItemData ItemOID="IT.LB.LBSTRESU" Value="10^9/L"/>
      <ItemData ItemOID="IT.LB.LBSTNRLO" Value="130"/>
      <ItemData ItemOID="IT.LB.LBSTNRHI" Value="394"/>
      <ItemData ItemOID="IT.LB.LBNRIND" Value="NORMAL"/>
      <ItemData ItemOID="IT.LB.VISITNUM" Value="4"/>
      <ItemData ItemOID="IT.LB.VISIT" Value="WEEK 2"/>
      <ItemData ItemOID="IT.LB.EPOCH" Value="TREATMENT"/>
      <ItemData ItemOID="IT.LB.LBDTC" Value="2012-12-13T14:05"/>
      <ItemData ItemOID="IT.LB.LBDY" Value="14"/>
    </ItemGroupData>
    <ItemGroupData ItemGroupOID="IG.LB" data:ItemGroupDataSeq="23">
      <ItemData ItemOID="IT.LB.STUDYID" Value="CDISCPILOT01"/>
      <ItemData ItemOID="IT.LB.DOMAIN" Value="LB"/>
      <ItemData ItemOID="IT.LB.USUBJID" Value="CDISC001"/>
      <ItemData ItemOID="IT.LB.LBSEQ" Value="68"/>
      <ItemData ItemOID="IT.LB.LBTESTCD" Value="RBC"/>
      <ItemData ItemOID="IT.LB.LBTEST" Value="Erythrocytes"/>
      <ItemData ItemOID="IT.LB.LBCAT" Value="HEMATOLOGY"/>
      <ItemData ItemOID="IT.LB.LBORRES" Value="4.70"/>
      <ItemData ItemOID="IT.LB.LBORRESU" Value="10^12/L"/>
      <ItemData ItemOID="IT.LB.LBORNRLO" Value="4"/>
      <ItemData ItemOID="IT.LB.LBORNRHI" Value="5.8"/>
      <ItemData ItemOID="IT.LB.LBSTRESC" Value="4.7"/>
      <ItemData ItemOID="IT.LB.LBSTRESN" Value="4.7"/>
      <ItemData ItemOID="IT.LB.LBSTRESU" Value="10^12/L"/>
      <ItemData ItemOID="IT.LB.LBSTNRLO" Value="4"/>
      <ItemData ItemOID="IT.LB.LBSTNRHI" Value="5.8"/>
      <ItemData ItemOID="IT.LB.LBNRIND" Value="NORMAL"/>
      <ItemData ItemOID="IT.LB.VISITNUM" Value="4"/>
      <ItemData ItemOID="IT.LB.VISIT" Value="WEEK 2"/>
      <ItemData ItemOID="IT.LB.EPOCH" Value="TREATMENT"/>
      <ItemData ItemOID="IT.LB.LBDTC" Value="2012-12-13T14:05"/>
      <ItemData ItemOID="IT.LB.LBDY" Value="14"/>
    </ItemGroupData>
    <ItemGroupData ItemGroupOID="IG.LB" data:ItemGroupDataSeq="24">
      <ItemData ItemOID="IT.LB.STUDYID" Value="CDISCPILOT01"/>
      <ItemData ItemOID="IT.LB.DOMAIN" Value="LB"/>
      <ItemData ItemOID="IT.LB.USUBJID" Value="CDISC001"/>
      <ItemData ItemOID="IT.LB.LBSEQ" Value="72"/>
      <ItemData ItemOID="IT.LB.LBTESTCD" Value="WBC"/>
      <ItemData ItemOID="IT.LB.LBTEST" Value="Leukocytes"/>
      <ItemData ItemOID="IT.LB.LBCAT" Value="HEMATOLOGY"/>
      <ItemData ItemOID="IT.LB.LBORRES" Value="4.44"/>
      <ItemData ItemOID="IT.LB.LBORRESU" Value="10^9/L"/>
      <ItemData ItemOID="IT.LB.LBORNRLO" Value="3.8"/>
      <ItemData ItemOID="IT.LB.LBORNRHI" Value="10.7"/>
      <ItemData ItemOID="IT.LB.LBSTRESC" Value="4.44"/>
      <ItemData ItemOID="IT.LB.LBSTRESN" Value="4.44"/>
      <ItemData ItemOID="IT.LB.LBSTRESU" Value="10^9/L"/>
      <ItemData ItemOID="IT.LB.LBSTNRLO" Value="3.8"/>
      <ItemData ItemOID="IT.LB.LBSTNRHI" Value="10.7"/>
      <ItemData ItemOID="IT.LB.LBNRIND" Value="NORMAL"/>
      <ItemData ItemOID="IT.LB.VISITNUM" Value="4"/>
      <ItemData ItemOID="IT.LB.VISIT" Value="WEEK 2"/>
      <ItemData ItemOID="IT.LB.EPOCH" Value="TREATMENT"/>
      <ItemData ItemOID="IT.LB.LBDTC" Value="2012-12-13T14:05"/>
      <ItemData ItemOID="IT.LB.LBDY" Value="14"/>
    </ItemGroupData>
    <ItemGroupData ItemGroupOID="IG.LB" data:ItemGroupDataSeq="25">
      <ItemData ItemOID="IT.LB.STUDYID" Value="CDISCPILOT01"/>
      <ItemData ItemOID="IT.LB.DOMAIN" Value="LB"/>
      <ItemData ItemOID="IT.LB.USUBJID" Value="CDISC001"/>
      <ItemData ItemOID="IT.LB.LBSEQ" Value="77"/>
      <ItemData ItemOID="IT.LB.LBTESTCD" Value="BASO"/>
      <ItemData ItemOID="IT.LB.LBTEST" Value="Basophils"/>
      <ItemData ItemOID="IT.LB.LBCAT" Value="HEMATOLOGY"/>
      <ItemData ItemOID="IT.LB.LBORRES" Value="0.05"/>
      <ItemData ItemOID="IT.LB.LBORRESU" Value="10^9/L"/>
      <ItemData ItemOID="IT.LB.LBORNRLO" Value="0"/>
      <ItemData ItemOID="IT.LB.LBORNRHI" Value="0.2"/>
      <ItemData ItemOID="IT.LB.LBSTRESC" Value="0.05"/>
      <ItemData ItemOID="IT.LB.LBSTRESN" Value="0.05"/>
      <ItemData ItemOID="IT.LB.LBSTRESU" Value="10^9/L"/>
      <ItemData ItemOID="IT.LB.LBSTNRLO" Value="0"/>
      <ItemData ItemOID="IT.LB.LBSTNRHI" Value="0.2"/>
      <ItemData ItemOID="IT.LB.LBNRIND" Value="NORMAL"/>
      <ItemData ItemOID="IT.LB.VISITNUM" Value="5"/>
      <ItemData ItemOID="IT.LB.VISIT" Value="WEEK 4"/>
      <ItemData ItemOID="IT.LB.EPOCH" Value="TREATMENT"/>
      <ItemData ItemOID="IT.LB.LBDTC" Value="2012-12-26T08:44"/>
      <ItemData ItemOID="IT.LB.LBDY" Value="27"/>
    </ItemGroupData>
    <ItemGroupData ItemGroupOID="IG.LB" data:ItemGroupDataSeq="26">
      <ItemData ItemOID="IT.LB.STUDYID" Value="CDISCPILOT01"/>
      <ItemData ItemOID="IT.LB.DOMAIN" Value="LB"/>
      <ItemData ItemOID="IT.LB.USUBJID" Value="CDISC001"/>
      <ItemData ItemOID="IT.LB.LBSEQ" Value="85"/>
      <ItemData ItemOID="IT.LB.LBTESTCD" Value="EOS"/>
      <ItemData ItemOID="IT.LB.LBTEST" Value="Eosinophils"/>
      <ItemData ItemOID="IT.LB.LBCAT" Value="HEMATOLOGY"/>
      <ItemData ItemOID="IT.LB.LBORRES" Value="0.07"/>
      <ItemData ItemOID="IT.LB.LBORRESU" Value="10^9/L"/>
      <ItemData ItemOID="IT.LB.LBORNRLO" Value="0"/>
      <ItemData ItemOID="IT.LB.LBORNRHI" Value="0.57"/>
      <ItemData ItemOID="IT.LB.LBSTRESC" Value="0.07"/>
      <ItemData ItemOID="IT.LB.LBSTRESN" Value="0.07"/>
      <ItemData ItemOID="IT.LB.LBSTRESU" Value="10^9/L"/>
      <ItemData ItemOID="IT.LB.LBSTNRLO" Value="0"/>
      <ItemData ItemOID="IT.LB.LBSTNRHI" Value="0.57"/>
      <ItemData ItemOID="IT.LB.LBNRIND" Value="NORMAL"/>
      <ItemData ItemOID="IT.LB.VISITNUM" Value="5"/>
      <ItemData ItemOID="IT.LB.VISIT" Value="WEEK 4"/>
      <ItemData ItemOID="IT.LB.EPOCH" Value="TREATMENT"/>
      <ItemData ItemOID="IT.LB.LBDTC" Value="2012-12-26T08:44"/>
      <ItemData ItemOID="IT.LB.LBDY" Value="27"/>
    </ItemGroupData>
    <ItemGroupData ItemGroupOID="IG.LB" data:ItemGroupDataSeq="27">
      <ItemData ItemOID="IT.LB.STUDYID" Value="CDISCPILOT01"/>
      <ItemData ItemOID="IT.LB.DOMAIN" Value="LB"/>
      <ItemData ItemOID="IT.LB.USUBJID" Value="CDISC001"/>
      <ItemData ItemOID="IT.LB.LBSEQ" Value="88"/>
      <ItemData ItemOID="IT.LB.LBTESTCD" Value="HCT"/>
      <ItemData ItemOID="IT.LB.LBTEST" Value="Hematocrit"/>
      <ItemData ItemOID="IT.LB.LBCAT" Value="HEMATOLOGY"/>
      <ItemData ItemOID="IT.LB.LBORRES" Value="45.0"/>
      <ItemData ItemOID="IT.LB.LBORRESU" Value="%"/>
      <ItemData ItemOID="IT.LB.LBORNRLO" Value="37"/>
      <ItemData ItemOID="IT.LB.LBORNRHI" Value="51"/>
      <ItemData ItemOID="IT.LB.LBSTRESC" Value="0.45"/>
      <ItemData ItemOID="IT.LB.LBSTRESN" Value="0.45"/>
      <ItemData ItemOID="IT.LB.LBSTNRLO" Value="0.37"/>
      <ItemData ItemOID="IT.LB.LBSTNRHI" Value="0.51"/>
      <ItemData ItemOID="IT.LB.LBNRIND" Value="NORMAL"/>
      <ItemData ItemOID="IT.LB.VISITNUM" Value="5"/>
      <ItemData ItemOID="IT.LB.VISIT" Value="WEEK 4"/>
      <ItemData ItemOID="IT.LB.EPOCH" Value="TREATMENT"/>
      <ItemData ItemOID="IT.LB.LBDTC" Value="2012-12-26T08:44"/>
      <ItemData ItemOID="IT.LB.LBDY" Value="27"/>
    </ItemGroupData>
    <ItemGroupData ItemGroupOID="IG.LB" data:ItemGroupDataSeq="28">
      <ItemData ItemOID="IT.LB.STUDYID" Value="CDISCPILOT01"/>
      <ItemData ItemOID="IT.LB.DOMAIN" Value="LB"/>
      <ItemData ItemOID="IT.LB.USUBJID" Value="CDISC001"/>
      <ItemData ItemOID="IT.LB.LBSEQ" Value="89"/>
      <ItemData ItemOID="IT.LB.LBTESTCD" Value="HGB"/>
      <ItemData ItemOID="IT.LB.LBTEST" Value="Hemoglobin"/>
      <ItemData ItemOID="IT.LB.LBCAT" Value="HEMATOLOGY"/>
      <ItemData ItemOID="IT.LB.LBORRES" Value="14.6"/>
      <ItemData ItemOID="IT.LB.LBORRESU" Value="g/dL"/>
      <ItemData ItemOID="IT.LB.LBORNRLO" Value="12.5"/>
      <ItemData ItemOID="IT.LB.LBORNRHI" Value="17"/>
      <ItemData ItemOID="IT.LB.LBSTRESC" Value="9.06076"/>
      <ItemData ItemOID="IT.LB.LBSTRESN" Value="9.06076"/>
      <ItemData ItemOID="IT.LB.LBSTRESU" Value="mmol/L"/>
      <ItemData ItemOID="IT.LB.LBSTNRLO" Value="7.76"/>
      <ItemData ItemOID="IT.LB.LBSTNRHI" Value="10.55"/>
      <ItemData ItemOID="IT.LB.LBNRIND" Value="NORMAL"/>
      <ItemData ItemOID="IT.LB.VISITNUM" Value="5"/>
      <ItemData ItemOID="IT.LB.VISIT" Value="WEEK 4"/>
      <ItemData ItemOID="IT.LB.EPOCH" Value="TREATMENT"/>
      <ItemData ItemOID="IT.LB.LBDTC" Value="2012-12-26T08:44"/>
      <ItemData ItemOID="IT.LB.LBDY" Value="27"/>
    </ItemGroupData>
    <ItemGroupData ItemGroupOID="IG.LB" data:ItemGroupDataSeq="29">
      <ItemData ItemOID="IT.LB.STUDYID" Value="CDISCPILOT01"/>
      <ItemData ItemOID="IT.LB.DOMAIN" Value="LB"/>
      <ItemData ItemOID="IT.LB.USUBJID" Value="CDISC001"/>
      <ItemData ItemOID="IT.LB.LBSEQ" Value="91"/>
      <ItemData ItemOID="IT.LB.LBTESTCD" Value="LYM"/>
      <ItemData ItemOID="IT.LB.LBTEST" Value="Lymphocytes"/>
      <ItemData ItemOID="IT.LB.LBCAT" Value="HEMATOLOGY"/>
      <ItemData ItemOID="IT.LB.LBORRES" Value="1.04"/>
      <ItemData ItemOID="IT.LB.LBORRESU" Value="10^9/L"/>
      <ItemData ItemOID="IT.LB.LBORNRLO" Value="0.8"/>
      <ItemData ItemOID="IT.LB.LBORNRHI" Value="3"/>
      <ItemData ItemOID="IT.LB.LBSTRESC" Value="1.04"/>
      <ItemData ItemOID="IT.LB.LBSTRESN" Value="1.04"/>
      <ItemData ItemOID="IT.LB.LBSTRESU" Value="10^9/L"/>
      <ItemData ItemOID="IT.LB.LBSTNRLO" Value="0.8"/>
      <ItemData ItemOID="IT.LB.LBSTNRHI" Value="3"/>
      <ItemData ItemOID="IT.LB.LBNRIND" Value="NORMAL"/>
      <ItemData ItemOID="IT.LB.VISITNUM" Value="5"/>
      <ItemData ItemOID="IT.LB.VISIT" Value="WEEK 4"/>
      <ItemData ItemOID="IT.LB.EPOCH" Value="TREATMENT"/>
      <ItemData ItemOID="IT.LB.LBDTC" Value="2012-12-26T08:44"/>
      <ItemData ItemOID="IT.LB.LBDY" Value="27"/>
    </ItemGroupData>
    <ItemGroupData ItemGroupOID="IG.LB" data:ItemGroupDataSeq="30">
      <ItemData ItemOID="IT.LB.STUDYID" Value="CDISCPILOT01"/>
      <ItemData ItemOID="IT.LB.DOMAIN" Value="LB"/>
      <ItemData ItemOID="IT.LB.USUBJID" Value="CDISC001"/>
      <ItemData ItemOID="IT.LB.LBSEQ" Value="92"/>
      <ItemData ItemOID="IT.LB.LBTESTCD" Value="MCH"/>
      <ItemData ItemOID="IT.LB.LBTEST" Value="Ery. Mean Corpuscular Hemoglobin"/>
      <ItemData ItemOID="IT.LB.LBCAT" Value="HEMATOLOGY"/>
      <ItemData ItemOID="IT.LB.LBORRES" Value="31"/>
      <ItemData ItemOID="IT.LB.LBORRESU" Value="pg"/>
      <ItemData ItemOID="IT.LB.LBORNRLO" Value="26"/>
      <ItemData ItemOID="IT.LB.LBORNRHI" Value="34"/>
      <ItemData ItemOID="IT.LB.LBSTRESC" Value="1.92386"/>
      <ItemData ItemOID="IT.LB.LBSTRESN" Value="1.92386"/>
      <ItemData ItemOID="IT.LB.LBSTRESU" Value="fmol"/>
      <ItemData ItemOID="IT.LB.LBSTNRLO" Value="1.6"/>
      <ItemData ItemOID="IT.LB.LBSTNRHI" Value="2.1"/>
      <ItemData ItemOID="IT.LB.LBNRIND" Value="NORMAL"/>
      <ItemData ItemOID="IT.LB.VISITNUM" Value="5"/>
      <ItemData ItemOID="IT.LB.VISIT" Value="WEEK 4"/>
      <ItemData ItemOID="IT.LB.EPOCH" Value="TREATMENT"/>
      <ItemData ItemOID="IT.LB.LBDTC" Value="2012-12-26T08:44"/>
      <ItemData ItemOID="IT.LB.LBDY" Value="27"/>
    </ItemGroupData>
    <ItemGroupData ItemGroupOID="IG.LB" data:ItemGroupDataSeq="31">
      <ItemData ItemOID="IT.LB.STUDYID" Value="CDISCPILOT01"/>
      <ItemData ItemOID="IT.LB.DOMAIN" Value="LB"/>
      <ItemData ItemOID="IT.LB.USUBJID" Value="CDISC001"/>
      <ItemData ItemOID="IT.LB.LBSEQ" Value="93"/>
      <ItemData ItemOID="IT.LB.LBTESTCD" Value="MCHC"/>
      <ItemData ItemOID="IT.LB.LBTEST" Value="Ery. Mean Corpuscular HGB Concentration"/>
      <ItemData ItemOID="IT.LB.LBCAT" Value="HEMATOLOGY"/>
      <ItemData ItemOID="IT.LB.LBORRES" Value="33"/>
      <ItemData ItemOID="IT.LB.LBORRESU" Value="g/dL"/>
      <ItemData ItemOID="IT.LB.LBORNRLO" Value="31"/>
      <ItemData ItemOID="IT.LB.LBORNRHI" Value="38"/>
      <ItemData ItemOID="IT.LB.LBSTRESC" Value="20.4798"/>
      <ItemData ItemOID="IT.LB.LBSTRESN" Value="20.4798"/>
      <ItemData ItemOID="IT.LB.LBSTRESU" Value="mmol/L"/>
      <ItemData ItemOID="IT.LB.LBSTNRLO" Value="19"/>
      <ItemData ItemOID="IT.LB.LBSTNRHI" Value="24"/>
      <ItemData ItemOID="IT.LB.LBNRIND" Value="NORMAL"/>
      <ItemData ItemOID="IT.LB.VISITNUM" Value="5"/>
      <ItemData ItemOID="IT.LB.VISIT" Value="WEEK 4"/>
      <ItemData ItemOID="IT.LB.EPOCH" Value="TREATMENT"/>
      <ItemData ItemOID="IT.LB.LBDTC" Value="2012-12-26T08:44"/>
      <ItemData ItemOID="IT.LB.LBDY" Value="27"/>
    </ItemGroupData>
    <ItemGroupData ItemGroupOID="IG.LB" data:ItemGroupDataSeq="32">
      <ItemData ItemOID="IT.LB.STUDYID" Value="CDISCPILOT01"/>
      <ItemData ItemOID="IT.LB.DOMAIN" Value="LB"/>
      <ItemData ItemOID="IT.LB.USUBJID" Value="CDISC001"/>
      <ItemData ItemOID="IT.LB.LBSEQ" Value="94"/>
      <ItemData ItemOID="IT.LB.LBTESTCD" Value="MCV"/>
      <ItemData ItemOID="IT.LB.LBTEST" Value="Ery. Mean Corpuscular Volume"/>
      <ItemData ItemOID="IT.LB.LBCAT" Value="HEMATOLOGY"/>
      <ItemData ItemOID="IT.LB.LBORRES" Value="96"/>
      <ItemData ItemOID="IT.LB.LBORRESU" Value="fL"/>
      <ItemData ItemOID="IT.LB.LBORNRLO" Value="80"/>
      <ItemData ItemOID="IT.LB.LBORNRHI" Value="100"/>
      <ItemData ItemOID="IT.LB.LBSTRESC" Value="96"/>
      <ItemData ItemOID="IT.LB.LBSTRESN" Value="96"/>
      <ItemData ItemOID="IT.LB.LBSTRESU" Value="fL"/>
      <ItemData ItemOID="IT.LB.LBSTNRLO" Value="80"/>
      <ItemData ItemOID="IT.LB.LBSTNRHI" Value="100"/>
      <ItemData ItemOID="IT.LB.LBNRIND" Value="NORMAL"/>
      <ItemData ItemOID="IT.LB.VISITNUM" Value="5"/>
      <ItemData ItemOID="IT.LB.VISIT" Value="WEEK 4"/>
      <ItemData ItemOID="IT.LB.EPOCH" Value="TREATMENT"/>
      <ItemData ItemOID="IT.LB.LBDTC" Value="2012-12-26T08:44"/>
      <ItemData ItemOID="IT.LB.LBDY" Value="27"/>
    </ItemGroupData>
    <ItemGroupData ItemGroupOID="IG.LB" data:ItemGroupDataSeq="33">
      <ItemData ItemOID="IT.LB.STUDYID" Value="CDISCPILOT01"/>
      <ItemData ItemOID="IT.LB.DOMAIN" Value="LB"/>
      <ItemData ItemOID="IT.LB.USUBJID" Value="CDISC001"/>
      <ItemData ItemOID="IT.LB.LBSEQ" Value="95"/>
      <ItemData ItemOID="IT.LB.LBTESTCD" Value="MONO"/>
      <ItemData ItemOID="IT.LB.LBTEST" Value="Monocytes"/>
      <ItemData ItemOID="IT.LB.LBCAT" Value="HEMATOLOGY"/>
      <ItemData ItemOID="IT.LB.LBORRES" Value="0.56"/>
      <ItemData ItemOID="IT.LB.LBORRESU" Value="10^9/L"/>
      <ItemData ItemOID="IT.LB.LBORNRLO" Value="0.12"/>
      <ItemData ItemOID="IT.LB.LBORNRHI" Value="0.92"/>
      <ItemData ItemOID="IT.LB.LBSTRESC" Value="0.56"/>
      <ItemData ItemOID="IT.LB.LBSTRESN" Value="0.56"/>
      <ItemData ItemOID="IT.LB.LBSTRESU" Value="10^9/L"/>
      <ItemData ItemOID="IT.LB.LBSTNRLO" Value="0.12"/>
      <ItemData ItemOID="IT.LB.LBSTNRHI" Value="0.92"/>
      <ItemData ItemOID="IT.LB.LBNRIND" Value="NORMAL"/>
      <ItemData ItemOID="IT.LB.VISITNUM" Value="5"/>
      <ItemData ItemOID="IT.LB.VISIT" Value="WEEK 4"/>
      <ItemData ItemOID="IT.LB.EPOCH" Value="TREATMENT"/>
      <ItemData ItemOID="IT.LB.LBDTC" Value="2012-12-26T08:44"/>
      <ItemData ItemOID="IT.LB.LBDY" Value="27"/>
    </ItemGroupData>
    <ItemGroupData ItemGroupOID="IG.LB" data:ItemGroupDataSeq="34">
      <ItemData ItemOID="IT.LB.STUDYID" Value="CDISCPILOT01"/>
      <ItemData ItemOID="IT.LB.DOMAIN" Value="LB"/>
      <ItemData ItemOID="IT.LB.USUBJID" Value="CDISC001"/>
      <ItemData ItemOID="IT.LB.LBSEQ" Value="98"/>
      <ItemData ItemOID="IT.LB.LBTESTCD" Value="PLAT"/>
      <ItemData ItemOID="IT.LB.LBTEST" Value="Platelets"/>
      <ItemData ItemOID="IT.LB.LBCAT" Value="HEMATOLOGY"/>
      <ItemData ItemOID="IT.LB.LBORRES" Value="187"/>
      <ItemData ItemOID="IT.LB.LBORRESU" Value="10^9/L"/>
      <ItemData ItemOID="IT.LB.LBORNRLO" Value="130"/>
      <ItemData ItemOID="IT.LB.LBORNRHI" Value="394"/>
      <ItemData ItemOID="IT.LB.LBSTRESC" Value="187"/>
      <ItemData ItemOID="IT.LB.LBSTRESN" Value="187"/>
      <ItemData ItemOID="IT.LB.LBSTRESU" Value="10^9/L"/>
      <ItemData ItemOID="IT.LB.LBSTNRLO" Value="130"/>
      <ItemData ItemOID="IT.LB.LBSTNRHI" Value="394"/>
      <ItemData ItemOID="IT.LB.LBNRIND" Value="NORMAL"/>
      <ItemData ItemOID="IT.LB.VISITNUM" Value="5"/>
      <ItemData ItemOID="IT.LB.VISIT" Value="WEEK 4"/>
      <ItemData ItemOID="IT.LB.EPOCH" Value="TREATMENT"/>
      <ItemData ItemOID="IT.LB.LBDTC" Value="2012-12-26T08:44"/>
      <ItemData ItemOID="IT.LB.LBDY" Value="27"/>
    </ItemGroupData>
    <ItemGroupData ItemGroupOID="IG.LB" data:ItemGroupDataSeq="35">
      <ItemData ItemOID="IT.LB.STUDYID" Value="CDISCPILOT01"/>
      <ItemData ItemOID="IT.LB.DOMAIN" Value="LB"/>
      <ItemData ItemOID="IT.LB.USUBJID" Value="CDISC001"/>
      <ItemData ItemOID="IT.LB.LBSEQ" Value="100"/>
      <ItemData ItemOID="IT.LB.LBTESTCD" Value="RBC"/>
      <ItemData ItemOID="IT.LB.LBTEST" Value="Erythrocytes"/>
      <ItemData ItemOID="IT.LB.LBCAT" Value="HEMATOLOGY"/>
      <ItemData ItemOID="IT.LB.LBORRES" Value="4.70"/>
      <ItemData ItemOID="IT.LB.LBORRESU" Value="10^12/L"/>
      <ItemData ItemOID="IT.LB.LBORNRLO" Value="4"/>
      <ItemData ItemOID="IT.LB.LBORNRHI" Value="5.8"/>
      <ItemData ItemOID="IT.LB.LBSTRESC" Value="4.7"/>
      <ItemData ItemOID="IT.LB.LBSTRESN" Value="4.7"/>
      <ItemData ItemOID="IT.LB.LBSTRESU" Value="10^12/L"/>
      <ItemData ItemOID="IT.LB.LBSTNRLO" Value="4"/>
      <ItemData ItemOID="IT.LB.LBSTNRHI" Value="5.8"/>
      <ItemData ItemOID="IT.LB.LBNRIND" Value="NORMAL"/>
      <ItemData ItemOID="IT.LB.VISITNUM" Value="5"/>
      <ItemData ItemOID="IT.LB.VISIT" Value="WEEK 4"/>
      <ItemData ItemOID="IT.LB.EPOCH" Value="TREATMENT"/>
      <ItemData ItemOID="IT.LB.LBDTC" Value="2012-12-26T08:44"/>
      <ItemData ItemOID="IT.LB.LBDY" Value="27"/>
    </ItemGroupData>
    <ItemGroupData ItemGroupOID="IG.LB" data:ItemGroupDataSeq="36">
      <ItemData ItemOID="IT.LB.STUDYID" Value="CDISCPILOT01"/>
      <ItemData ItemOID="IT.LB.DOMAIN" Value="LB"/>
      <ItemData ItemOID="IT.LB.USUBJID" Value="CDISC001"/>
      <ItemData ItemOID="IT.LB.LBSEQ" Value="102"/>
      <ItemData ItemOID="IT.LB.LBTESTCD" Value="WBC"/>
      <ItemData ItemOID="IT.LB.LBTEST" Value="Leukocytes"/>
      <ItemData ItemOID="IT.LB.LBCAT" Value="HEMATOLOGY"/>
      <ItemData ItemOID="IT.LB.LBORRES" Value="5.40"/>
      <ItemData ItemOID="IT.LB.LBORRESU" Value="10^9/L"/>
      <ItemData ItemOID="IT.LB.LBORNRLO" Value="3.8"/>
      <ItemData ItemOID="IT.LB.LBORNRHI" Value="10.7"/>
      <ItemData ItemOID="IT.LB.LBSTRESC" Value="5.4"/>
      <ItemData ItemOID="IT.LB.LBSTRESN" Value="5.4"/>
      <ItemData ItemOID="IT.LB.LBSTRESU" Value="10^9/L"/>
      <ItemData ItemOID="IT.LB.LBSTNRLO" Value="3.8"/>
      <ItemData ItemOID="IT.LB.LBSTNRHI" Value="10.7"/>
      <ItemData ItemOID="IT.LB.LBNRIND" Value="NORMAL"/>
      <ItemData ItemOID="IT.LB.VISITNUM" Value="5"/>
      <ItemData ItemOID="IT.LB.VISIT" Value="WEEK 4"/>
      <ItemData ItemOID="IT.LB.EPOCH" Value="TREATMENT"/>
      <ItemData ItemOID="IT.LB.LBDTC" Value="2012-12-26T08:44"/>
      <ItemData ItemOID="IT.LB.LBDY" Value="27"/>
    </ItemGroupData>
    <ItemGroupData ItemGroupOID="IG.LB" data:ItemGroupDataSeq="37">
      <ItemData ItemOID="IT.LB.STUDYID" Value="CDISCPILOT01"/>
      <ItemData ItemOID="IT.LB.DOMAIN" Value="LB"/>
      <ItemData ItemOID="IT.LB.USUBJID" Value="CDISC001"/>
      <ItemData ItemOID="IT.LB.LBSEQ" Value="122"/>
      <ItemData ItemOID="IT.LB.LBTESTCD" Value="BASO"/>
      <ItemData ItemOID="IT.LB.LBTEST" Value="Basophils"/>
      <ItemData ItemOID="IT.LB.LBCAT" Value="HEMATOLOGY"/>
      <ItemData ItemOID="IT.LB.LBORRES" Value="0.03"/>
      <ItemData ItemOID="IT.LB.LBORRESU" Value="10^9/L"/>
      <ItemData ItemOID="IT.LB.LBORNRLO" Value="0"/>
      <ItemData ItemOID="IT.LB.LBORNRHI" Value="0.2"/>
      <ItemData ItemOID="IT.LB.LBSTRESC" Value="0.03"/>
      <ItemData ItemOID="IT.LB.LBSTRESN" Value="0.03"/>
      <ItemData ItemOID="IT.LB.LBSTRESU" Value="10^9/L"/>
      <ItemData ItemOID="IT.LB.LBSTNRLO" Value="0"/>
      <ItemData ItemOID="IT.LB.LBSTNRHI" Value="0.2"/>
      <ItemData ItemOID="IT.LB.LBNRIND" Value="NORMAL"/>
      <ItemData ItemOID="IT.LB.VISITNUM" Value="7"/>
      <ItemData ItemOID="IT.LB.VISIT" Value="WEEK 6"/>
      <ItemData ItemOID="IT.LB.EPOCH" Value="TREATMENT"/>
      <ItemData ItemOID="IT.LB.LBDTC" Value="2013-01-10T15:20"/>
      <ItemData ItemOID="IT.LB.LBDY" Value="42"/>
    </ItemGroupData>
    <ItemGroupData ItemGroupOID="IG.LB" data:ItemGroupDataSeq="38">
      <ItemData ItemOID="IT.LB.STUDYID" Value="CDISCPILOT01"/>
      <ItemData ItemOID="IT.LB.DOMAIN" Value="LB"/>
      <ItemData ItemOID="IT.LB.USUBJID" Value="CDISC001"/>
      <ItemData ItemOID="IT.LB.LBSEQ" Value="130"/>
      <ItemData ItemOID="IT.LB.LBTESTCD" Value="EOS"/>
      <ItemData ItemOID="IT.LB.LBTEST" Value="Eosinophils"/>
      <ItemData ItemOID="IT.LB.LBCAT" Value="HEMATOLOGY"/>
      <ItemData ItemOID="IT.LB.LBORRES" Value="0.16"/>
      <ItemData ItemOID="IT.LB.LBORRESU" Value="10^9/L"/>
      <ItemData ItemOID="IT.LB.LBORNRLO" Value="0"/>
      <ItemData ItemOID="IT.LB.LBORNRHI" Value="0.57"/>
      <ItemData ItemOID="IT.LB.LBSTRESC" Value="0.16"/>
      <ItemData ItemOID="IT.LB.LBSTRESN" Value="0.16"/>
      <ItemData ItemOID="IT.LB.LBSTRESU" Value="10^9/L"/>
      <ItemData ItemOID="IT.LB.LBSTNRLO" Value="0"/>
      <ItemData ItemOID="IT.LB.LBSTNRHI" Value="0.57"/>
      <ItemData ItemOID="IT.LB.LBNRIND" Value="NORMAL"/>
      <ItemData ItemOID="IT.LB.VISITNUM" Value="7"/>
      <ItemData ItemOID="IT.LB.VISIT" Value="WEEK 6"/>
      <ItemData ItemOID="IT.LB.EPOCH" Value="TREATMENT"/>
      <ItemData ItemOID="IT.LB.LBDTC" Value="2013-01-10T15:20"/>
      <ItemData ItemOID="IT.LB.LBDY" Value="42"/>
    </ItemGroupData>
    <ItemGroupData ItemGroupOID="IG.LB" data:ItemGroupDataSeq="39">
      <ItemData ItemOID="IT.LB.STUDYID" Value="CDISCPILOT01"/>
      <ItemData ItemOID="IT.LB.DOMAIN" Value="LB"/>
      <ItemData ItemOID="IT.LB.USUBJID" Value="CDISC001"/>
      <ItemData ItemOID="IT.LB.LBSEQ" Value="133"/>
      <ItemData ItemOID="IT.LB.LBTESTCD" Value="HCT"/>
      <ItemData ItemOID="IT.LB.LBTEST" Value="Hematocrit"/>
      <ItemData ItemOID="IT.LB.LBCAT" Value="HEMATOLOGY"/>
      <ItemData ItemOID="IT.LB.LBORRES" Value="45.0"/>
      <ItemData ItemOID="IT.LB.LBORRESU" Value="%"/>
      <ItemData ItemOID="IT.LB.LBORNRLO" Value="37"/>
      <ItemData ItemOID="IT.LB.LBORNRHI" Value="51"/>
      <ItemData ItemOID="IT.LB.LBSTRESC" Value="0.45"/>
      <ItemData ItemOID="IT.LB.LBSTRESN" Value="0.45"/>
      <ItemData ItemOID="IT.LB.LBSTNRLO" Value="0.37"/>
      <ItemData ItemOID="IT.LB.LBSTNRHI" Value="0.51"/>
      <ItemData ItemOID="IT.LB.LBNRIND" Value="NORMAL"/>
      <ItemData ItemOID="IT.LB.VISITNUM" Value="7"/>
      <ItemData ItemOID="IT.LB.VISIT" Value="WEEK 6"/>
      <ItemData ItemOID="IT.LB.EPOCH" Value="TREATMENT"/>
      <ItemData ItemOID="IT.LB.LBDTC" Value="2013-01-10T15:20"/>
      <ItemData ItemOID="IT.LB.LBDY" Value="42"/>
    </ItemGroupData>
    <ItemGroupData ItemGroupOID="IG.LB" data:ItemGroupDataSeq="40">
      <ItemData ItemOID="IT.LB.STUDYID" Value="CDISCPILOT01"/>
      <ItemData ItemOID="IT.LB.DOMAIN" Value="LB"/>
      <ItemData ItemOID="IT.LB.USUBJID" Value="CDISC001"/>
      <ItemData ItemOID="IT.LB.LBSEQ" Value="134"/>
      <ItemData ItemOID="IT.LB.LBTESTCD" Value="HGB"/>
      <ItemData ItemOID="IT.LB.LBTEST" Value="Hemoglobin"/>
      <ItemData ItemOID="IT.LB.LBCAT" Value="HEMATOLOGY"/>
      <ItemData ItemOID="IT.LB.LBORRES" Value="14.7"/>
      <ItemData ItemOID="IT.LB.LBORRESU" Value="g/dL"/>
      <ItemData ItemOID="IT.LB.LBORNRLO" Value="12.5"/>
      <ItemData ItemOID="IT.LB.LBORNRHI" Value="17"/>
      <ItemData ItemOID="IT.LB.LBSTRESC" Value="9.12282"/>
      <ItemData ItemOID="IT.LB.LBSTRESN" Value="9.12282"/>
      <ItemData ItemOID="IT.LB.LBSTRESU" Value="mmol/L"/>
      <ItemData ItemOID="IT.LB.LBSTNRLO" Value="7.76"/>
      <ItemData ItemOID="IT.LB.LBSTNRHI" Value="10.55"/>
      <ItemData ItemOID="IT.LB.LBNRIND" Value="NORMAL"/>
      <ItemData ItemOID="IT.LB.VISITNUM" Value="7"/>
      <ItemData ItemOID="IT.LB.VISIT" Value="WEEK 6"/>
      <ItemData ItemOID="IT.LB.EPOCH" Value="TREATMENT"/>
      <ItemData ItemOID="IT.LB.LBDTC" Value="2013-01-10T15:20"/>
      <ItemData ItemOID="IT.LB.LBDY" Value="42"/>
    </ItemGroupData>
    <ItemGroupData ItemGroupOID="IG.LB" data:ItemGroupDataSeq="41">
      <ItemData ItemOID="IT.LB.STUDYID" Value="CDISCPILOT01"/>
      <ItemData ItemOID="IT.LB.DOMAIN" Value="LB"/>
      <ItemData ItemOID="IT.LB.USUBJID" Value="CDISC001"/>
      <ItemData ItemOID="IT.LB.LBSEQ" Value="136"/>
      <ItemData ItemOID="IT.LB.LBTESTCD" Value="LYM"/>
      <ItemData ItemOID="IT.LB.LBTEST" Value="Lymphocytes"/>
      <ItemData ItemOID="IT.LB.LBCAT" Value="HEMATOLOGY"/>
      <ItemData ItemOID="IT.LB.LBORRES" Value="1.13"/>
      <ItemData ItemOID="IT.LB.LBORRESU" Value="10^9/L"/>
      <ItemData ItemOID="IT.LB.LBORNRLO" Value="0.8"/>
      <ItemData ItemOID="IT.LB.LBORNRHI" Value="3"/>
      <ItemData ItemOID="IT.LB.LBSTRESC" Value="1.13"/>
      <ItemData ItemOID="IT.LB.LBSTRESN" Value="1.13"/>
      <ItemData ItemOID="IT.LB.LBSTRESU" Value="10^9/L"/>
      <ItemData ItemOID="IT.LB.LBSTNRLO" Value="0.8"/>
      <ItemData ItemOID="IT.LB.LBSTNRHI" Value="3"/>
      <ItemData ItemOID="IT.LB.LBNRIND" Value="NORMAL"/>
      <ItemData ItemOID="IT.LB.VISITNUM" Value="7"/>
      <ItemData ItemOID="IT.LB.VISIT" Value="WEEK 6"/>
      <ItemData ItemOID="IT.LB.EPOCH" Value="TREATMENT"/>
      <ItemData ItemOID="IT.LB.LBDTC" Value="2013-01-10T15:20"/>
      <ItemData ItemOID="IT.LB.LBDY" Value="42"/>
    </ItemGroupData>
    <ItemGroupData ItemGroupOID="IG.LB" data:ItemGroupDataSeq="42">
      <ItemData ItemOID="IT.LB.STUDYID" Value="CDISCPILOT01"/>
      <ItemData ItemOID="IT.LB.DOMAIN" Value="LB"/>
      <ItemData ItemOID="IT.LB.USUBJID" Value="CDISC001"/>
      <ItemData ItemOID="IT.LB.LBSEQ" Value="137"/>
      <ItemData ItemOID="IT.LB.LBTESTCD" Value="MCH"/>
      <ItemData ItemOID="IT.LB.LBTEST" Value="Ery. Mean Corpuscular Hemoglobin"/>
      <ItemData ItemOID="IT.LB.LBCAT" Value="HEMATOLOGY"/>
      <ItemData ItemOID="IT.LB.LBORRES" Value="31"/>
      <ItemData ItemOID="IT.LB.LBORRESU" Value="pg"/>
      <ItemData ItemOID="IT.LB.LBORNRLO" Value="26"/>
      <ItemData ItemOID="IT.LB.LBORNRHI" Value="34"/>
      <ItemData ItemOID="IT.LB.LBSTRESC" Value="1.92386"/>
      <ItemData ItemOID="IT.LB.LBSTRESN" Value="1.92386"/>
      <ItemData ItemOID="IT.LB.LBSTRESU" Value="fmol"/>
      <ItemData ItemOID="IT.LB.LBSTNRLO" Value="1.6"/>
      <ItemData ItemOID="IT.LB.LBSTNRHI" Value="2.1"/>
      <ItemData ItemOID="IT.LB.LBNRIND" Value="NORMAL"/>
      <ItemData ItemOID="IT.LB.VISITNUM" Value="7"/>
      <ItemData ItemOID="IT.LB.VISIT" Value="WEEK 6"/>
      <ItemData ItemOID="IT.LB.EPOCH" Value="TREATMENT"/>
      <ItemData ItemOID="IT.LB.LBDTC" Value="2013-01-10T15:20"/>
      <ItemData ItemOID="IT.LB.LBDY" Value="42"/>
    </ItemGroupData>
    <ItemGroupData ItemGroupOID="IG.LB" data:ItemGroupDataSeq="43">
      <ItemData ItemOID="IT.LB.STUDYID" Value="CDISCPILOT01"/>
      <ItemData ItemOID="IT.LB.DOMAIN" Value="LB"/>
      <ItemData ItemOID="IT.LB.USUBJID" Value="CDISC001"/>
      <ItemData ItemOID="IT.LB.LBSEQ" Value="138"/>
      <ItemData ItemOID="IT.LB.LBTESTCD" Value="MCHC"/>
      <ItemData ItemOID="IT.LB.LBTEST" Value="Ery. Mean Corpuscular HGB Concentration"/>
      <ItemData ItemOID="IT.LB.LBCAT" Value="HEMATOLOGY"/>
      <ItemData ItemOID="IT.LB.LBORRES" Value="33"/>
      <ItemData ItemOID="IT.LB.LBORRESU" Value="g/dL"/>
      <ItemData ItemOID="IT.LB.LBORNRLO" Value="31"/>
      <ItemData ItemOID="IT.LB.LBORNRHI" Value="38"/>
      <ItemData ItemOID="IT.LB.LBSTRESC" Value="20.4798"/>
      <ItemData ItemOID="IT.LB.LBSTRESN" Value="20.4798"/>
      <ItemData ItemOID="IT.LB.LBSTRESU" Value="mmol/L"/>
      <ItemData ItemOID="IT.LB.LBSTNRLO" Value="19"/>
      <ItemData ItemOID="IT.LB.LBSTNRHI" Value="24"/>
      <ItemData ItemOID="IT.LB.LBNRIND" Value="NORMAL"/>
      <ItemData ItemOID="IT.LB.VISITNUM" Value="7"/>
      <ItemData ItemOID="IT.LB.VISIT" Value="WEEK 6"/>
      <ItemData ItemOID="IT.LB.EPOCH" Value="TREATMENT"/>
      <ItemData ItemOID="IT.LB.LBDTC" Value="2013-01-10T15:20"/>
      <ItemData ItemOID="IT.LB.LBDY" Value="42"/>
    </ItemGroupData>
    <ItemGroupData ItemGroupOID="IG.LB" data:ItemGroupDataSeq="44">
      <ItemData ItemOID="IT.LB.STUDYID" Value="CDISCPILOT01"/>
      <ItemData ItemOID="IT.LB.DOMAIN" Value="LB"/>
      <ItemData ItemOID="IT.LB.USUBJID" Value="CDISC001"/>
      <ItemData ItemOID="IT.LB.LBSEQ" Value="139"/>
      <ItemData ItemOID="IT.LB.LBTESTCD" Value="MCV"/>
      <ItemData ItemOID="IT.LB.LBTEST" Value="Ery. Mean Corpuscular Volume"/>
      <ItemData ItemOID="IT.LB.LBCAT" Value="HEMATOLOGY"/>
      <ItemData ItemOID="IT.LB.LBORRES" Value="95"/>
      <ItemData ItemOID="IT.LB.LBORRESU" Value="fL"/>
      <ItemData ItemOID="IT.LB.LBORNRLO" Value="80"/>
      <ItemData ItemOID="IT.LB.LBORNRHI" Value="100"/>
      <ItemData ItemOID="IT.LB.LBSTRESC" Value="95"/>
      <ItemData ItemOID="IT.LB.LBSTRESN" Value="95"/>
      <ItemData ItemOID="IT.LB.LBSTRESU" Value="fL"/>
      <ItemData ItemOID="IT.LB.LBSTNRLO" Value="80"/>
      <ItemData ItemOID="IT.LB.LBSTNRHI" Value="100"/>
      <ItemData ItemOID="IT.LB.LBNRIND" Value="NORMAL"/>
      <ItemData ItemOID="IT.LB.VISITNUM" Value="7"/>
      <ItemData ItemOID="IT.LB.VISIT" Value="WEEK 6"/>
      <ItemData ItemOID="IT.LB.EPOCH" Value="TREATMENT"/>
      <ItemData ItemOID="IT.LB.LBDTC" Value="2013-01-10T15:20"/>
      <ItemData ItemOID="IT.LB.LBDY" Value="42"/>
    </ItemGroupData>
    <ItemGroupData ItemGroupOID="IG.LB" data:ItemGroupDataSeq="45">
      <ItemData ItemOID="IT.LB.STUDYID" Value="CDISCPILOT01"/>
      <ItemData ItemOID="IT.LB.DOMAIN" Value="LB"/>
      <ItemData ItemOID="IT.LB.USUBJID" Value="CDISC001"/>
      <ItemData ItemOID="IT.LB.LBSEQ" Value="140"/>
      <ItemData ItemOID="IT.LB.LBTESTCD" Value="MONO"/>
      <ItemData ItemOID="IT.LB.LBTEST" Value="Monocytes"/>
      <ItemData ItemOID="IT.LB.LBCAT" Value="HEMATOLOGY"/>
      <ItemData ItemOID="IT.LB.LBORRES" Value="0.38"/>
      <ItemData ItemOID="IT.LB.LBORRESU" Value="10^9/L"/>
      <ItemData ItemOID="IT.LB.LBORNRLO" Value="0.12"/>
      <ItemData ItemOID="IT.LB.LBORNRHI" Value="0.92"/>
      <ItemData ItemOID="IT.LB.LBSTRESC" Value="0.38"/>
      <ItemData ItemOID="IT.LB.LBSTRESN" Value="0.38"/>
      <ItemData ItemOID="IT.LB.LBSTRESU" Value="10^9/L"/>
      <ItemData ItemOID="IT.LB.LBSTNRLO" Value="0.12"/>
      <ItemData ItemOID="IT.LB.LBSTNRHI" Value="0.92"/>
      <ItemData ItemOID="IT.LB.LBNRIND" Value="NORMAL"/>
      <ItemData ItemOID="IT.LB.VISITNUM" Value="7"/>
      <ItemData ItemOID="IT.LB.VISIT" Value="WEEK 6"/>
      <ItemData ItemOID="IT.LB.EPOCH" Value="TREATMENT"/>
      <ItemData ItemOID="IT.LB.LBDTC" Value="2013-01-10T15:20"/>
      <ItemData ItemOID="IT.LB.LBDY" Value="42"/>
    </ItemGroupData>
    <ItemGroupData ItemGroupOID="IG.LB" data:ItemGroupDataSeq="46">
      <ItemData ItemOID="IT.LB.STUDYID" Value="CDISCPILOT01"/>
      <ItemData ItemOID="IT.LB.DOMAIN" Value="LB"/>
      <ItemData ItemOID="IT.LB.USUBJID" Value="CDISC001"/>
      <ItemData ItemOID="IT.LB.LBSEQ" Value="143"/>
      <ItemData ItemOID="IT.LB.LBTESTCD" Value="PLAT"/>
      <ItemData ItemOID="IT.LB.LBTEST" Value="Platelets"/>
      <ItemData ItemOID="IT.LB.LBCAT" Value="HEMATOLOGY"/>
      <ItemData ItemOID="IT.LB.LBORRES" Value="181"/>
      <ItemData ItemOID="IT.LB.LBORRESU" Value="10^9/L"/>
      <ItemData ItemOID="IT.LB.LBORNRLO" Value="130"/>
      <ItemData ItemOID="IT.LB.LBORNRHI" Value="394"/>
      <ItemData ItemOID="IT.LB.LBSTRESC" Value="181"/>
      <ItemData ItemOID="IT.LB.LBSTRESN" Value="181"/>
      <ItemData ItemOID="IT.LB.LBSTRESU" Value="10^9/L"/>
      <ItemData ItemOID="IT.LB.LBSTNRLO" Value="130"/>
      <ItemData ItemOID="IT.LB.LBSTNRHI" Value="394"/>
      <ItemData ItemOID="IT.LB.LBNRIND" Value="NORMAL"/>
      <ItemData ItemOID="IT.LB.VISITNUM" Value="7"/>
      <ItemData ItemOID="IT.LB.VISIT" Value="WEEK 6"/>
      <ItemData ItemOID="IT.LB.EPOCH" Value="TREATMENT"/>
      <ItemData ItemOID="IT.LB.LBDTC" Value="2013-01-10T15:20"/>
      <ItemData ItemOID="IT.LB.LBDY" Value="42"/>
    </ItemGroupData>
    <ItemGroupData ItemGroupOID="IG.LB" data:ItemGroupDataSeq="47">
      <ItemData ItemOID="IT.LB.STUDYID" Value="CDISCPILOT01"/>
      <ItemData ItemOID="IT.LB.DOMAIN" Value="LB"/>
      <ItemData ItemOID="IT.LB.USUBJID" Value="CDISC001"/>
      <ItemData ItemOID="IT.LB.LBSEQ" Value="145"/>
      <ItemData ItemOID="IT.LB.LBTESTCD" Value="RBC"/>
      <ItemData ItemOID="IT.LB.LBTEST" Value="Erythrocytes"/>
      <ItemData ItemOID="IT.LB.LBCAT" Value="HEMATOLOGY"/>
      <ItemData ItemOID="IT.LB.LBORRES" Value="4.70"/>
      <ItemData ItemOID="IT.LB.LBORRESU" Value="10^12/L"/>
      <ItemData ItemOID="IT.LB.LBORNRLO" Value="4"/>
      <ItemData ItemOID="IT.LB.LBORNRHI" Value="5.8"/>
      <ItemData ItemOID="IT.LB.LBSTRESC" Value="4.7"/>
      <ItemData ItemOID="IT.LB.LBSTRESN" Value="4.7"/>
      <ItemData ItemOID="IT.LB.LBSTRESU" Value="10^12/L"/>
      <ItemData ItemOID="IT.LB.LBSTNRLO" Value="4"/>
      <ItemData ItemOID="IT.LB.LBSTNRHI" Value="5.8"/>
      <ItemData ItemOID="IT.LB.LBNRIND" Value="NORMAL"/>
      <ItemData ItemOID="IT.LB.VISITNUM" Value="7"/>
      <ItemData ItemOID="IT.LB.VISIT" Value="WEEK 6"/>
      <ItemData ItemOID="IT.LB.EPOCH" Value="TREATMENT"/>
      <ItemData ItemOID="IT.LB.LBDTC" Value="2013-01-10T15:20"/>
      <ItemData ItemOID="IT.LB.LBDY" Value="42"/>
    </ItemGroupData>
    <ItemGroupData ItemGroupOID="IG.LB" data:ItemGroupDataSeq="48">
      <ItemData ItemOID="IT.LB.STUDYID" Value="CDISCPILOT01"/>
      <ItemData ItemOID="IT.LB.DOMAIN" Value="LB"/>
      <ItemData ItemOID="IT.LB.USUBJID" Value="CDISC001"/>
      <ItemData ItemOID="IT.LB.LBSEQ" Value="147"/>
      <ItemData ItemOID="IT.LB.LBTESTCD" Value="WBC"/>
      <ItemData ItemOID="IT.LB.LBTEST" Value="Leukocytes"/>
      <ItemData ItemOID="IT.LB.LBCAT" Value="HEMATOLOGY"/>
      <ItemData ItemOID="IT.LB.LBORRES" Value="4.52"/>
      <ItemData ItemOID="IT.LB.LBORRESU" Value="10^9/L"/>
      <ItemData ItemOID="IT.LB.LBORNRLO" Value="3.8"/>
      <ItemData ItemOID="IT.LB.LBORNRHI" Value="10.7"/>
      <ItemData ItemOID="IT.LB.LBSTRESC" Value="4.52"/>
      <ItemData ItemOID="IT.LB.LBSTRESN" Value="4.52"/>
      <ItemData ItemOID="IT.LB.LBSTRESU" Value="10^9/L"/>
      <ItemData ItemOID="IT.LB.LBSTNRLO" Value="3.8"/>
      <ItemData ItemOID="IT.LB.LBSTNRHI" Value="10.7"/>
      <ItemData ItemOID="IT.LB.LBNRIND" Value="NORMAL"/>
      <ItemData ItemOID="IT.LB.VISITNUM" Value="7"/>
      <ItemData ItemOID="IT.LB.VISIT" Value="WEEK 6"/>
      <ItemData ItemOID="IT.LB.EPOCH" Value="TREATMENT"/>
      <ItemData ItemOID="IT.LB.LBDTC" Value="2013-01-10T15:20"/>
      <ItemData ItemOID="IT.LB.LBDY" Value="42"/>
    </ItemGroupData>
    <ItemGroupData ItemGroupOID="IG.LB" data:ItemGroupDataSeq="49">
      <ItemData ItemOID="IT.LB.STUDYID" Value="CDISCPILOT01"/>
      <ItemData ItemOID="IT.LB.DOMAIN" Value="LB"/>
      <ItemData ItemOID="IT.LB.USUBJID" Value="CDISC001"/>
      <ItemData ItemOID="IT.LB.LBSEQ" Value="152"/>
      <ItemData ItemOID="IT.LB.LBTESTCD" Value="BASO"/>
      <ItemData ItemOID="IT.LB.LBTEST" Value="Basophils"/>
      <ItemData ItemOID="IT.LB.LBCAT" Value="HEMATOLOGY"/>
      <ItemData ItemOID="IT.LB.LBORRES" Value="0.04"/>
      <ItemData ItemOID="IT.LB.LBORRESU" Value="10^9/L"/>
      <ItemData ItemOID="IT.LB.LBORNRLO" Value="0"/>
      <ItemData ItemOID="IT.LB.LBORNRHI" Value="0.2"/>
      <ItemData ItemOID="IT.LB.LBSTRESC" Value="0.04"/>
      <ItemData ItemOID="IT.LB.LBSTRESN" Value="0.04"/>
      <ItemData ItemOID="IT.LB.LBSTRESU" Value="10^9/L"/>
      <ItemData ItemOID="IT.LB.LBSTNRLO" Value="0"/>
      <ItemData ItemOID="IT.LB.LBSTNRHI" Value="0.2"/>
      <ItemData ItemOID="IT.LB.LBNRIND" Value="NORMAL"/>
      <ItemData ItemOID="IT.LB.VISITNUM" Value="8"/>
      <ItemData ItemOID="IT.LB.VISIT" Value="WEEK 8"/>
      <ItemData ItemOID="IT.LB.EPOCH" Value="TREATMENT"/>
      <ItemData ItemOID="IT.LB.LBDTC" Value="2013-01-23T12:13"/>
      <ItemData ItemOID="IT.LB.LBDY" Value="55"/>
    </ItemGroupData>
    <ItemGroupData ItemGroupOID="IG.LB" data:ItemGroupDataSeq="50">
      <ItemData ItemOID="IT.LB.STUDYID" Value="CDISCPILOT01"/>
      <ItemData ItemOID="IT.LB.DOMAIN" Value="LB"/>
      <ItemData ItemOID="IT.LB.USUBJID" Value="CDISC001"/>
      <ItemData ItemOID="IT.LB.LBSEQ" Value="161"/>
      <ItemData ItemOID="IT.LB.LBTESTCD" Value="EOS"/>
      <ItemData ItemOID="IT.LB.LBTEST" Value="Eosinophils"/>
      <ItemData ItemOID="IT.LB.LBCAT" Value="HEMATOLOGY"/>
      <ItemData ItemOID="IT.LB.LBORRES" Value="0.35"/>
      <ItemData ItemOID="IT.LB.LBORRESU" Value="10^9/L"/>
      <ItemData ItemOID="IT.LB.LBORNRLO" Value="0"/>
      <ItemData ItemOID="IT.LB.LBORNRHI" Value="0.57"/>
      <ItemData ItemOID="IT.LB.LBSTRESC" Value="0.35"/>
      <ItemData ItemOID="IT.LB.LBSTRESN" Value="0.35"/>
      <ItemData ItemOID="IT.LB.LBSTRESU" Value="10^9/L"/>
      <ItemData ItemOID="IT.LB.LBSTNRLO" Value="0"/>
      <ItemData ItemOID="IT.LB.LBSTNRHI" Value="0.57"/>
      <ItemData ItemOID="IT.LB.LBNRIND" Value="NORMAL"/>
      <ItemData ItemOID="IT.LB.VISITNUM" Value="8"/>
      <ItemData ItemOID="IT.LB.VISIT" Value="WEEK 8"/>
      <ItemData ItemOID="IT.LB.EPOCH" Value="TREATMENT"/>
      <ItemData ItemOID="IT.LB.LBDTC" Value="2013-01-23T12:13"/>
      <ItemData ItemOID="IT.LB.LBDY" Value="55"/>
    </ItemGroupData>
    <ItemGroupData ItemGroupOID="IG.LB" data:ItemGroupDataSeq="51">
      <ItemData ItemOID="IT.LB.STUDYID" Value="CDISCPILOT01"/>
      <ItemData ItemOID="IT.LB.DOMAIN" Value="LB"/>
      <ItemData ItemOID="IT.LB.USUBJID" Value="CDISC001"/>
      <ItemData ItemOID="IT.LB.LBSEQ" Value="164"/>
      <ItemData ItemOID="IT.LB.LBTESTCD" Value="HCT"/>
      <ItemData ItemOID="IT.LB.LBTEST" Value="Hematocrit"/>
      <ItemData ItemOID="IT.LB.LBCAT" Value="HEMATOLOGY"/>
      <ItemData ItemOID="IT.LB.LBORRES" Value="45.0"/>
      <ItemData ItemOID="IT.LB.LBORRESU" Value="%"/>
      <ItemData ItemOID="IT.LB.LBORNRLO" Value="37"/>
      <ItemData ItemOID="IT.LB.LBORNRHI" Value="51"/>
      <ItemData ItemOID="IT.LB.LBSTRESC" Value="0.45"/>
      <ItemData ItemOID="IT.LB.LBSTRESN" Value="0.45"/>
      <ItemData ItemOID="IT.LB.LBSTNRLO" Value="0.37"/>
      <ItemData ItemOID="IT.LB.LBSTNRHI" Value="0.51"/>
      <ItemData ItemOID="IT.LB.LBNRIND" Value="NORMAL"/>
      <ItemData ItemOID="IT.LB.VISITNUM" Value="8"/>
      <ItemData ItemOID="IT.LB.VISIT" Value="WEEK 8"/>
      <ItemData ItemOID="IT.LB.EPOCH" Value="TREATMENT"/>
      <ItemData ItemOID="IT.LB.LBDTC" Value="2013-01-23T12:13"/>
      <ItemData ItemOID="IT.LB.LBDY" Value="55"/>
    </ItemGroupData>
    <ItemGroupData ItemGroupOID="IG.LB" data:ItemGroupDataSeq="52">
      <ItemData ItemOID="IT.LB.STUDYID" Value="CDISCPILOT01"/>
      <ItemData ItemOID="IT.LB.DOMAIN" Value="LB"/>
      <ItemData ItemOID="IT.LB.USUBJID" Value="CDISC001"/>
      <ItemData ItemOID="IT.LB.LBSEQ" Value="165"/>
      <ItemData ItemOID="IT.LB.LBTESTCD" Value="HGB"/>
      <ItemData ItemOID="IT.LB.LBTEST" Value="Hemoglobin"/>
      <ItemData ItemOID="IT.LB.LBCAT" Value="HEMATOLOGY"/>
      <ItemData ItemOID="IT.LB.LBORRES" Value="15.2"/>
      <ItemData ItemOID="IT.LB.LBORRESU" Value="g/dL"/>
      <ItemData ItemOID="IT.LB.LBORNRLO" Value="12.5"/>
      <ItemData ItemOID="IT.LB.LBORNRHI" Value="17"/>
      <ItemData ItemOID="IT.LB.LBSTRESC" Value="9.43312"/>
      <ItemData ItemOID="IT.LB.LBSTRESN" Value="9.43312"/>
      <ItemData ItemOID="IT.LB.LBSTRESU" Value="mmol/L"/>
      <ItemData ItemOID="IT.LB.LBSTNRLO" Value="7.76"/>
      <ItemData ItemOID="IT.LB.LBSTNRHI" Value="10.55"/>
      <ItemData ItemOID="IT.LB.LBNRIND" Value="NORMAL"/>
      <ItemData ItemOID="IT.LB.VISITNUM" Value="8"/>
      <ItemData ItemOID="IT.LB.VISIT" Value="WEEK 8"/>
      <ItemData ItemOID="IT.LB.EPOCH" Value="TREATMENT"/>
      <ItemData ItemOID="IT.LB.LBDTC" Value="2013-01-23T12:13"/>
      <ItemData ItemOID="IT.LB.LBDY" Value="55"/>
    </ItemGroupData>
    <ItemGroupData ItemGroupOID="IG.LB" data:ItemGroupDataSeq="53">
      <ItemData ItemOID="IT.LB.STUDYID" Value="CDISCPILOT01"/>
      <ItemData ItemOID="IT.LB.DOMAIN" Value="LB"/>
      <ItemData ItemOID="IT.LB.USUBJID" Value="CDISC001"/>
      <ItemData ItemOID="IT.LB.LBSEQ" Value="168"/>
      <ItemData ItemOID="IT.LB.LBTESTCD" Value="LYM"/>
      <ItemData ItemOID="IT.LB.LBTEST" Value="Lymphocytes"/>
      <ItemData ItemOID="IT.LB.LBCAT" Value="HEMATOLOGY"/>
      <ItemData ItemOID="IT.LB.LBORRES" Value="1.13"/>
      <ItemData ItemOID="IT.LB.LBORRESU" Value="10^9/L"/>
      <ItemData ItemOID="IT.LB.LBORNRLO" Value="0.8"/>
      <ItemData ItemOID="IT.LB.LBORNRHI" Value="3"/>
      <ItemData ItemOID="IT.LB.LBSTRESC" Value="1.13"/>
      <ItemData ItemOID="IT.LB.LBSTRESN" Value="1.13"/>
      <ItemData ItemOID="IT.LB.LBSTRESU" Value="10^9/L"/>
      <ItemData ItemOID="IT.LB.LBSTNRLO" Value="0.8"/>
      <ItemData ItemOID="IT.LB.LBSTNRHI" Value="3"/>
      <ItemData ItemOID="IT.LB.LBNRIND" Value="NORMAL"/>
      <ItemData ItemOID="IT.LB.VISITNUM" Value="8"/>
      <ItemData ItemOID="IT.LB.VISIT" Value="WEEK 8"/>
      <ItemData ItemOID="IT.LB.EPOCH" Value="TREATMENT"/>
      <ItemData ItemOID="IT.LB.LBDTC" Value="2013-01-23T12:13"/>
      <ItemData ItemOID="IT.LB.LBDY" Value="55"/>
    </ItemGroupData>
    <ItemGroupData ItemGroupOID="IG.LB" data:ItemGroupDataSeq="54">
      <ItemData ItemOID="IT.LB.STUDYID" Value="CDISCPILOT01"/>
      <ItemData ItemOID="IT.LB.DOMAIN" Value="LB"/>
      <ItemData ItemOID="IT.LB.USUBJID" Value="CDISC001"/>
      <ItemData ItemOID="IT.LB.LBSEQ" Value="169"/>
      <ItemData ItemOID="IT.LB.LBTESTCD" Value="MCH"/>
      <ItemData ItemOID="IT.LB.LBTEST" Value="Ery. Mean Corpuscular Hemoglobin"/>
      <ItemData ItemOID="IT.LB.LBCAT" Value="HEMATOLOGY"/>
      <ItemData ItemOID="IT.LB.LBORRES" Value="32"/>
      <ItemData ItemOID="IT.LB.LBORRESU" Value="pg"/>
      <ItemData ItemOID="IT.LB.LBORNRLO" Value="26"/>
      <ItemData ItemOID="IT.LB.LBORNRHI" Value="34"/>
      <ItemData ItemOID="IT.LB.LBSTRESC" Value="1.98592"/>
      <ItemData ItemOID="IT.LB.LBSTRESN" Value="1.98592"/>
      <ItemData ItemOID="IT.LB.LBSTRESU" Value="fmol"/>
      <ItemData ItemOID="IT.LB.LBSTNRLO" Value="1.6"/>
      <ItemData ItemOID="IT.LB.LBSTNRHI" Value="2.1"/>
      <ItemData ItemOID="IT.LB.LBNRIND" Value="NORMAL"/>
      <ItemData ItemOID="IT.LB.VISITNUM" Value="8"/>
      <ItemData ItemOID="IT.LB.VISIT" Value="WEEK 8"/>
      <ItemData ItemOID="IT.LB.EPOCH" Value="TREATMENT"/>
      <ItemData ItemOID="IT.LB.LBDTC" Value="2013-01-23T12:13"/>
      <ItemData ItemOID="IT.LB.LBDY" Value="55"/>
    </ItemGroupData>
    <ItemGroupData ItemGroupOID="IG.LB" data:ItemGroupDataSeq="55">
      <ItemData ItemOID="IT.LB.STUDYID" Value="CDISCPILOT01"/>
      <ItemData ItemOID="IT.LB.DOMAIN" Value="LB"/>
      <ItemData ItemOID="IT.LB.USUBJID" Value="CDISC001"/>
      <ItemData ItemOID="IT.LB.LBSEQ" Value="170"/>
      <ItemData ItemOID="IT.LB.LBTESTCD" Value="MCHC"/>
      <ItemData ItemOID="IT.LB.LBTEST" Value="Ery. Mean Corpuscular HGB Concentration"/>
      <ItemData ItemOID="IT.LB.LBCAT" Value="HEMATOLOGY"/>
      <ItemData ItemOID="IT.LB.LBORRES" Value="34"/>
      <ItemData ItemOID="IT.LB.LBORRESU" Value="g/dL"/>
      <ItemData ItemOID="IT.LB.LBORNRLO" Value="31"/>
      <ItemData ItemOID="IT.LB.LBORNRHI" Value="38"/>
      <ItemData ItemOID="IT.LB.LBSTRESC" Value="21.1004"/>
      <ItemData ItemOID="IT.LB.LBSTRESN" Value="21.1004"/>
      <ItemData ItemOID="IT.LB.LBSTRESU" Value="mmol/L"/>
      <ItemData ItemOID="IT.LB.LBSTNRLO" Value="19"/>
      <ItemData ItemOID="IT.LB.LBSTNRHI" Value="24"/>
      <ItemData ItemOID="IT.LB.LBNRIND" Value="NORMAL"/>
      <ItemData ItemOID="IT.LB.VISITNUM" Value="8"/>
      <ItemData ItemOID="IT.LB.VISIT" Value="WEEK 8"/>
      <ItemData ItemOID="IT.LB.EPOCH" Value="TREATMENT"/>
      <ItemData ItemOID="IT.LB.LBDTC" Value="2013-01-23T12:13"/>
      <ItemData ItemOID="IT.LB.LBDY" Value="55"/>
    </ItemGroupData>
    <ItemGroupData ItemGroupOID="IG.LB" data:ItemGroupDataSeq="56">
      <ItemData ItemOID="IT.LB.STUDYID" Value="CDISCPILOT01"/>
      <ItemData ItemOID="IT.LB.DOMAIN" Value="LB"/>
      <ItemData ItemOID="IT.LB.USUBJID" Value="CDISC001"/>
      <ItemData ItemOID="IT.LB.LBSEQ" Value="171"/>
      <ItemData ItemOID="IT.LB.LBTESTCD" Value="MCV"/>
      <ItemData ItemOID="IT.LB.LBTEST" Value="Ery. Mean Corpuscular Volume"/>
      <ItemData ItemOID="IT.LB.LBCAT" Value="HEMATOLOGY"/>
      <ItemData ItemOID="IT.LB.LBORRES" Value="94"/>
      <ItemData ItemOID="IT.LB.LBORRESU" Value="fL"/>
      <ItemData ItemOID="IT.LB.LBORNRLO" Value="80"/>
      <ItemData ItemOID="IT.LB.LBORNRHI" Value="100"/>
      <ItemData ItemOID="IT.LB.LBSTRESC" Value="94"/>
      <ItemData ItemOID="IT.LB.LBSTRESN" Value="94"/>
      <ItemData ItemOID="IT.LB.LBSTRESU" Value="fL"/>
      <ItemData ItemOID="IT.LB.LBSTNRLO" Value="80"/>
      <ItemData ItemOID="IT.LB.LBSTNRHI" Value="100"/>
      <ItemData ItemOID="IT.LB.LBNRIND" Value="NORMAL"/>
      <ItemData ItemOID="IT.LB.VISITNUM" Value="8"/>
      <ItemData ItemOID="IT.LB.VISIT" Value="WEEK 8"/>
      <ItemData ItemOID="IT.LB.EPOCH" Value="TREATMENT"/>
      <ItemData ItemOID="IT.LB.LBDTC" Value="2013-01-23T12:13"/>
      <ItemData ItemOID="IT.LB.LBDY" Value="55"/>
    </ItemGroupData>
    <ItemGroupData ItemGroupOID="IG.LB" data:ItemGroupDataSeq="57">
      <ItemData ItemOID="IT.LB.STUDYID" Value="CDISCPILOT01"/>
      <ItemData ItemOID="IT.LB.DOMAIN" Value="LB"/>
      <ItemData ItemOID="IT.LB.USUBJID" Value="CDISC001"/>
      <ItemData ItemOID="IT.LB.LBSEQ" Value="172"/>
      <ItemData ItemOID="IT.LB.LBTESTCD" Value="MONO"/>
      <ItemData ItemOID="IT.LB.LBTEST" Value="Monocytes"/>
      <ItemData ItemOID="IT.LB.LBCAT" Value="HEMATOLOGY"/>
      <ItemData ItemOID="IT.LB.LBORRES" Value="0.41"/>
      <ItemData ItemOID="IT.LB.LBORRESU" Value="10^9/L"/>
      <ItemData ItemOID="IT.LB.LBORNRLO" Value="0.12"/>
      <ItemData ItemOID="IT.LB.LBORNRHI" Value="0.92"/>
      <ItemData ItemOID="IT.LB.LBSTRESC" Value="0.41"/>
      <ItemData ItemOID="IT.LB.LBSTRESN" Value="0.41"/>
      <ItemData ItemOID="IT.LB.LBSTRESU" Value="10^9/L"/>
      <ItemData ItemOID="IT.LB.LBSTNRLO" Value="0.12"/>
      <ItemData ItemOID="IT.LB.LBSTNRHI" Value="0.92"/>
      <ItemData ItemOID="IT.LB.LBNRIND" Value="NORMAL"/>
      <ItemData ItemOID="IT.LB.VISITNUM" Value="8"/>
      <ItemData ItemOID="IT.LB.VISIT" Value="WEEK 8"/>
      <ItemData ItemOID="IT.LB.EPOCH" Value="TREATMENT"/>
      <ItemData ItemOID="IT.LB.LBDTC" Value="2013-01-23T12:13"/>
      <ItemData ItemOID="IT.LB.LBDY" Value="55"/>
    </ItemGroupData>
    <ItemGroupData ItemGroupOID="IG.LB" data:ItemGroupDataSeq="58">
      <ItemData ItemOID="IT.LB.STUDYID" Value="CDISCPILOT01"/>
      <ItemData ItemOID="IT.LB.DOMAIN" Value="LB"/>
      <ItemData ItemOID="IT.LB.USUBJID" Value="CDISC001"/>
      <ItemData ItemOID="IT.LB.LBSEQ" Value="176"/>
      <ItemData ItemOID="IT.LB.LBTESTCD" Value="PLAT"/>
      <ItemData ItemOID="IT.LB.LBTEST" Value="Platelets"/>
      <ItemData ItemOID="IT.LB.LBCAT" Value="HEMATOLOGY"/>
      <ItemData ItemOID="IT.LB.LBORRES" Value="174"/>
      <ItemData ItemOID="IT.LB.LBORRESU" Value="10^9/L"/>
      <ItemData ItemOID="IT.LB.LBORNRLO" Value="130"/>
      <ItemData ItemOID="IT.LB.LBORNRHI" Value="394"/>
      <ItemData ItemOID="IT.LB.LBSTRESC" Value="174"/>
      <ItemData ItemOID="IT.LB.LBSTRESN" Value="174"/>
      <ItemData ItemOID="IT.LB.LBSTRESU" Value="10^9/L"/>
      <ItemData ItemOID="IT.LB.LBSTNRLO" Value="130"/>
      <ItemData ItemOID="IT.LB.LBSTNRHI" Value="394"/>
      <ItemData ItemOID="IT.LB.LBNRIND" Value="NORMAL"/>
      <ItemData ItemOID="IT.LB.VISITNUM" Value="8"/>
      <ItemData ItemOID="IT.LB.VISIT" Value="WEEK 8"/>
      <ItemData ItemOID="IT.LB.EPOCH" Value="TREATMENT"/>
      <ItemData ItemOID="IT.LB.LBDTC" Value="2013-01-23T12:13"/>
      <ItemData ItemOID="IT.LB.LBDY" Value="55"/>
    </ItemGroupData>
    <ItemGroupData ItemGroupOID="IG.LB" data:ItemGroupDataSeq="59">
      <ItemData ItemOID="IT.LB.STUDYID" Value="CDISCPILOT01"/>
      <ItemData ItemOID="IT.LB.DOMAIN" Value="LB"/>
      <ItemData ItemOID="IT.LB.USUBJID" Value="CDISC001"/>
      <ItemData ItemOID="IT.LB.LBSEQ" Value="178"/>
      <ItemData ItemOID="IT.LB.LBTESTCD" Value="RBC"/>
      <ItemData ItemOID="IT.LB.LBTEST" Value="Erythrocytes"/>
      <ItemData ItemOID="IT.LB.LBCAT" Value="HEMATOLOGY"/>
      <ItemData ItemOID="IT.LB.LBORRES" Value="4.80"/>
      <ItemData ItemOID="IT.LB.LBORRESU" Value="10^12/L"/>
      <ItemData ItemOID="IT.LB.LBORNRLO" Value="4"/>
      <ItemData ItemOID="IT.LB.LBORNRHI" Value="5.8"/>
      <ItemData ItemOID="IT.LB.LBSTRESC" Value="4.8"/>
      <ItemData ItemOID="IT.LB.LBSTRESN" Value="4.8"/>
      <ItemData ItemOID="IT.LB.LBSTRESU" Value="10^12/L"/>
      <ItemData ItemOID="IT.LB.LBSTNRLO" Value="4"/>
      <ItemData ItemOID="IT.LB.LBSTNRHI" Value="5.8"/>
      <ItemData ItemOID="IT.LB.LBNRIND" Value="NORMAL"/>
      <ItemData ItemOID="IT.LB.VISITNUM" Value="8"/>
      <ItemData ItemOID="IT.LB.VISIT" Value="WEEK 8"/>
      <ItemData ItemOID="IT.LB.EPOCH" Value="TREATMENT"/>
      <ItemData ItemOID="IT.LB.LBDTC" Value="2013-01-23T12:13"/>
      <ItemData ItemOID="IT.LB.LBDY" Value="55"/>
    </ItemGroupData>
    <ItemGroupData ItemGroupOID="IG.LB" data:ItemGroupDataSeq="60">
      <ItemData ItemOID="IT.LB.STUDYID" Value="CDISCPILOT01"/>
      <ItemData ItemOID="IT.LB.DOMAIN" Value="LB"/>
      <ItemData ItemOID="IT.LB.USUBJID" Value="CDISC001"/>
      <ItemData ItemOID="IT.LB.LBSEQ" Value="182"/>
      <ItemData ItemOID="IT.LB.LBTESTCD" Value="WBC"/>
      <ItemData ItemOID="IT.LB.LBTEST" Value="Leukocytes"/>
      <ItemData ItemOID="IT.LB.LBCAT" Value="HEMATOLOGY"/>
      <ItemData ItemOID="IT.LB.LBORRES" Value="4.98"/>
      <ItemData ItemOID="IT.LB.LBORRESU" Value="10^9/L"/>
      <ItemData ItemOID="IT.LB.LBORNRLO" Value="3.8"/>
      <ItemData ItemOID="IT.LB.LBORNRHI" Value="10.7"/>
      <ItemData ItemOID="IT.LB.LBSTRESC" Value="4.98"/>
      <ItemData ItemOID="IT.LB.LBSTRESN" Value="4.98"/>
      <ItemData ItemOID="IT.LB.LBSTRESU" Value="10^9/L"/>
      <ItemData ItemOID="IT.LB.LBSTNRLO" Value="3.8"/>
      <ItemData ItemOID="IT.LB.LBSTNRHI" Value="10.7"/>
      <ItemData ItemOID="IT.LB.LBNRIND" Value="NORMAL"/>
      <ItemData ItemOID="IT.LB.VISITNUM" Value="8"/>
      <ItemData ItemOID="IT.LB.VISIT" Value="WEEK 8"/>
      <ItemData ItemOID="IT.LB.EPOCH" Value="TREATMENT"/>
      <ItemData ItemOID="IT.LB.LBDTC" Value="2013-01-23T12:13"/>
      <ItemData ItemOID="IT.LB.LBDY" Value="55"/>
    </ItemGroupData>
    <ItemGroupData ItemGroupOID="IG.LB" data:ItemGroupDataSeq="61">
      <ItemData ItemOID="IT.LB.STUDYID" Value="CDISCPILOT01"/>
      <ItemData ItemOID="IT.LB.DOMAIN" Value="LB"/>
      <ItemData ItemOID="IT.LB.USUBJID" Value="CDISC002"/>
      <ItemData ItemOID="IT.LB.LBSEQ" Value="5"/>
      <ItemData ItemOID="IT.LB.LBTESTCD" Value="BASO"/>
      <ItemData ItemOID="IT.LB.LBTEST" Value="Basophils"/>
      <ItemData ItemOID="IT.LB.LBCAT" Value="HEMATOLOGY"/>
      <ItemData ItemOID="IT.LB.LBORRES" Value="0.10"/>
      <ItemData ItemOID="IT.LB.LBORRESU" Value="10^9/L"/>
      <ItemData ItemOID="IT.LB.LBORNRLO" Value="0"/>
      <ItemData ItemOID="IT.LB.LBORNRHI" Value="0.2"/>
      <ItemData ItemOID="IT.LB.LBSTRESC" Value="0.1"/>
      <ItemData ItemOID="IT.LB.LBSTRESN" Value="0.1"/>
      <ItemData ItemOID="IT.LB.LBSTRESU" Value="10^9/L"/>
      <ItemData ItemOID="IT.LB.LBSTNRLO" Value="0"/>
      <ItemData ItemOID="IT.LB.LBSTNRHI" Value="0.2"/>
      <ItemData ItemOID="IT.LB.LBNRIND" Value="NORMAL"/>
      <ItemData ItemOID="IT.LB.LBLOBXFL" Value="Y"/>
      <ItemData ItemOID="IT.LB.VISITNUM" Value="1"/>
      <ItemData ItemOID="IT.LB.VISIT" Value="SCREENING 1"/>
      <ItemData ItemOID="IT.LB.EPOCH" Value="SCREENING"/>
      <ItemData ItemOID="IT.LB.LBDTC" Value="2012-10-30T14:26"/>
      <ItemData ItemOID="IT.LB.LBDY" Value="-16"/>
    </ItemGroupData>
    <ItemGroupData ItemGroupOID="IG.LB" data:ItemGroupDataSeq="62">
      <ItemData ItemOID="IT.LB.STUDYID" Value="CDISCPILOT01"/>
      <ItemData ItemOID="IT.LB.DOMAIN" Value="LB"/>
      <ItemData ItemOID="IT.LB.USUBJID" Value="CDISC002"/>
      <ItemData ItemOID="IT.LB.LBSEQ" Value="14"/>
      <ItemData ItemOID="IT.LB.LBTESTCD" Value="EOS"/>
      <ItemData ItemOID="IT.LB.LBTEST" Value="Eosinophils"/>
      <ItemData ItemOID="IT.LB.LBCAT" Value="HEMATOLOGY"/>
      <ItemData ItemOID="IT.LB.LBORRES" Value="0.05"/>
      <ItemData ItemOID="IT.LB.LBORRESU" Value="10^9/L"/>
      <ItemData ItemOID="IT.LB.LBORNRLO" Value="0"/>
      <ItemData ItemOID="IT.LB.LBORNRHI" Value="0.57"/>
      <ItemData ItemOID="IT.LB.LBSTRESC" Value="0.05"/>
      <ItemData ItemOID="IT.LB.LBSTRESN" Value="0.05"/>
      <ItemData ItemOID="IT.LB.LBSTRESU" Value="10^9/L"/>
      <ItemData ItemOID="IT.LB.LBSTNRLO" Value="0"/>
      <ItemData ItemOID="IT.LB.LBSTNRHI" Value="0.57"/>
      <ItemData ItemOID="IT.LB.LBNRIND" Value="NORMAL"/>
      <ItemData ItemOID="IT.LB.LBLOBXFL" Value="Y"/>
      <ItemData ItemOID="IT.LB.VISITNUM" Value="1"/>
      <ItemData ItemOID="IT.LB.VISIT" Value="SCREENING 1"/>
      <ItemData ItemOID="IT.LB.EPOCH" Value="SCREENING"/>
      <ItemData ItemOID="IT.LB.LBDTC" Value="2012-10-30T14:26"/>
      <ItemData ItemOID="IT.LB.LBDY" Value="-16"/>
    </ItemGroupData>
    <ItemGroupData ItemGroupOID="IG.LB" data:ItemGroupDataSeq="63">
      <ItemData ItemOID="IT.LB.STUDYID" Value="CDISCPILOT01"/>
      <ItemData ItemOID="IT.LB.DOMAIN" Value="LB"/>
      <ItemData ItemOID="IT.LB.USUBJID" Value="CDISC002"/>
      <ItemData ItemOID="IT.LB.LBSEQ" Value="17"/>
      <ItemData ItemOID="IT.LB.LBTESTCD" Value="HCT"/>
      <ItemData ItemOID="IT.LB.LBTEST" Value="Hematocrit"/>
      <ItemData ItemOID="IT.LB.LBCAT" Value="HEMATOLOGY"/>
      <ItemData ItemOID="IT.LB.LBORRES" Value="47.0"/>
      <ItemData ItemOID="IT.LB.LBORRESU" Value="%"/>
      <ItemData ItemOID="IT.LB.LBORNRLO" Value="34"/>
      <ItemData ItemOID="IT.LB.LBORNRHI" Value="48"/>
      <ItemData ItemOID="IT.LB.LBSTRESC" Value="0.47"/>
      <ItemData ItemOID="IT.LB.LBSTRESN" Value="0.47"/>
      <ItemData ItemOID="IT.LB.LBSTNRLO" Value="0.34"/>
      <ItemData ItemOID="IT.LB.LBSTNRHI" Value="0.48"/>
      <ItemData ItemOID="IT.LB.LBNRIND" Value="NORMAL"/>
      <ItemData ItemOID="IT.LB.LBLOBXFL" Value="Y"/>
      <ItemData ItemOID="IT.LB.VISITNUM" Value="1"/>
      <ItemData ItemOID="IT.LB.VISIT" Value="SCREENING 1"/>
      <ItemData ItemOID="IT.LB.EPOCH" Value="SCREENING"/>
      <ItemData ItemOID="IT.LB.LBDTC" Value="2012-10-30T14:26"/>
      <ItemData ItemOID="IT.LB.LBDY" Value="-16"/>
    </ItemGroupData>
    <ItemGroupData ItemGroupOID="IG.LB" data:ItemGroupDataSeq="64">
      <ItemData ItemOID="IT.LB.STUDYID" Value="CDISCPILOT01"/>
      <ItemData ItemOID="IT.LB.DOMAIN" Value="LB"/>
      <ItemData ItemOID="IT.LB.USUBJID" Value="CDISC002"/>
      <ItemData ItemOID="IT.LB.LBSEQ" Value="18"/>
      <ItemData ItemOID="IT.LB.LBTESTCD" Value="HGB"/>
      <ItemData ItemOID="IT.LB.LBTEST" Value="Hemoglobin"/>
      <ItemData ItemOID="IT.LB.LBCAT" Value="HEMATOLOGY"/>
      <ItemData ItemOID="IT.LB.LBORRES" Value="15.2"/>
      <ItemData ItemOID="IT.LB.LBORRESU" Value="g/dL"/>
      <ItemData ItemOID="IT.LB.LBORNRLO" Value="11.5"/>
      <ItemData ItemOID="IT.LB.LBORNRHI" Value="15.8"/>
      <ItemData ItemOID="IT.LB.LBSTRESC" Value="9.43312"/>
      <ItemData ItemOID="IT.LB.LBSTRESN" Value="9.43312"/>
      <ItemData ItemOID="IT.LB.LBSTRESU" Value="mmol/L"/>
      <ItemData ItemOID="IT.LB.LBSTNRLO" Value="7.14"/>
      <ItemData ItemOID="IT.LB.LBSTNRHI" Value="9.81"/>
      <ItemData ItemOID="IT.LB.LBNRIND" Value="NORMAL"/>
      <ItemData ItemOID="IT.LB.LBLOBXFL" Value="Y"/>
      <ItemData ItemOID="IT.LB.VISITNUM" Value="1"/>
      <ItemData ItemOID="IT.LB.VISIT" Value="SCREENING 1"/>
      <ItemData ItemOID="IT.LB.EPOCH" Value="SCREENING"/>
      <ItemData ItemOID="IT.LB.LBDTC" Value="2012-10-30T14:26"/>
      <ItemData ItemOID="IT.LB.LBDY" Value="-16"/>
    </ItemGroupData>
    <ItemGroupData ItemGroupOID="IG.LB" data:ItemGroupDataSeq="65">
      <ItemData ItemOID="IT.LB.STUDYID" Value="CDISCPILOT01"/>
      <ItemData ItemOID="IT.LB.DOMAIN" Value="LB"/>
      <ItemData ItemOID="IT.LB.USUBJID" Value="CDISC002"/>
      <ItemData ItemOID="IT.LB.LBSEQ" Value="21"/>
      <ItemData ItemOID="IT.LB.LBTESTCD" Value="LYM"/>
      <ItemData ItemOID="IT.LB.LBTEST" Value="Lymphocytes"/>
      <ItemData ItemOID="IT.LB.LBCAT" Value="HEMATOLOGY"/>
      <ItemData ItemOID="IT.LB.LBORRES" Value="1.20"/>
      <ItemData ItemOID="IT.LB.LBORRESU" Value="10^9/L"/>
      <ItemData ItemOID="IT.LB.LBORNRLO" Value="0.8"/>
      <ItemData ItemOID="IT.LB.LBORNRHI" Value="3"/>
      <ItemData ItemOID="IT.LB.LBSTRESC" Value="1.2"/>
      <ItemData ItemOID="IT.LB.LBSTRESN" Value="1.2"/>
      <ItemData ItemOID="IT.LB.LBSTRESU" Value="10^9/L"/>
      <ItemData ItemOID="IT.LB.LBSTNRLO" Value="0.8"/>
      <ItemData ItemOID="IT.LB.LBSTNRHI" Value="3"/>
      <ItemData ItemOID="IT.LB.LBNRIND" Value="NORMAL"/>
      <ItemData ItemOID="IT.LB.LBLOBXFL" Value="Y"/>
      <ItemData ItemOID="IT.LB.VISITNUM" Value="1"/>
      <ItemData ItemOID="IT.LB.VISIT" Value="SCREENING 1"/>
      <ItemData ItemOID="IT.LB.EPOCH" Value="SCREENING"/>
      <ItemData ItemOID="IT.LB.LBDTC" Value="2012-10-30T14:26"/>
      <ItemData ItemOID="IT.LB.LBDY" Value="-16"/>
    </ItemGroupData>
    <ItemGroupData ItemGroupOID="IG.LB" data:ItemGroupDataSeq="66">
      <ItemData ItemOID="IT.LB.STUDYID" Value="CDISCPILOT01"/>
      <ItemData ItemOID="IT.LB.DOMAIN" Value="LB"/>
      <ItemData ItemOID="IT.LB.USUBJID" Value="CDISC002"/>
      <ItemData ItemOID="IT.LB.LBSEQ" Value="22"/>
      <ItemData ItemOID="IT.LB.LBTESTCD" Value="MCH"/>
      <ItemData ItemOID="IT.LB.LBTEST" Value="Ery. Mean Corpuscular Hemoglobin"/>
      <ItemData ItemOID="IT.LB.LBCAT" Value="HEMATOLOGY"/>
      <ItemData ItemOID="IT.LB.LBORRES" Value="30"/>
      <ItemData ItemOID="IT.LB.LBORRESU" Value="pg"/>
      <ItemData ItemOID="IT.LB.LBORNRLO" Value="26"/>
      <ItemData ItemOID="IT.LB.LBORNRHI" Value="34"/>
      <ItemData ItemOID="IT.LB.LBSTRESC" Value="1.8618"/>
      <ItemData ItemOID="IT.LB.LBSTRESN" Value="1.8618"/>
      <ItemData ItemOID="IT.LB.LBSTRESU" Value="fmol"/>
      <ItemData ItemOID="IT.LB.LBSTNRLO" Value="1.6"/>
      <ItemData ItemOID="IT.LB.LBSTNRHI" Value="2.1"/>
      <ItemData ItemOID="IT.LB.LBNRIND" Value="NORMAL"/>
      <ItemData ItemOID="IT.LB.LBLOBXFL" Value="Y"/>
      <ItemData ItemOID="IT.LB.VISITNUM" Value="1"/>
      <ItemData ItemOID="IT.LB.VISIT" Value="SCREENING 1"/>
      <ItemData ItemOID="IT.LB.EPOCH" Value="SCREENING"/>
      <ItemData ItemOID="IT.LB.LBDTC" Value="2012-10-30T14:26"/>
      <ItemData ItemOID="IT.LB.LBDY" Value="-16"/>
    </ItemGroupData>
    <ItemGroupData ItemGroupOID="IG.LB" data:ItemGroupDataSeq="67">
      <ItemData ItemOID="IT.LB.STUDYID" Value="CDISCPILOT01"/>
      <ItemData ItemOID="IT.LB.DOMAIN" Value="LB"/>
      <ItemData ItemOID="IT.LB.USUBJID" Value="CDISC002"/>
      <ItemData ItemOID="IT.LB.LBSEQ" Value="23"/>
      <ItemData ItemOID="IT.LB.LBTESTCD" Value="MCHC"/>
      <ItemData ItemOID="IT.LB.LBTEST" Value="Ery. Mean Corpuscular HGB Concentration"/>
      <ItemData ItemOID="IT.LB.LBCAT" Value="HEMATOLOGY"/>
      <ItemData ItemOID="IT.LB.LBORRES" Value="32"/>
      <ItemData ItemOID="IT.LB.LBORRESU" Value="g/dL"/>
      <ItemData ItemOID="IT.LB.LBORNRLO" Value="31"/>
      <ItemData ItemOID="IT.LB.LBORNRHI" Value="38"/>
      <ItemData ItemOID="IT.LB.LBSTRESC" Value="19.8592"/>
      <ItemData ItemOID="IT.LB.LBSTRESN" Value="19.8592"/>
      <ItemData ItemOID="IT.LB.LBSTRESU" Value="mmol/L"/>
      <ItemData ItemOID="IT.LB.LBSTNRLO" Value="19"/>
      <ItemData ItemOID="IT.LB.LBSTNRHI" Value="24"/>
      <ItemData ItemOID="IT.LB.LBNRIND" Value="NORMAL"/>
      <ItemData ItemOID="IT.LB.LBLOBXFL" Value="Y"/>
      <ItemData ItemOID="IT.LB.VISITNUM" Value="1"/>
      <ItemData ItemOID="IT.LB.VISIT" Value="SCREENING 1"/>
      <ItemData ItemOID="IT.LB.EPOCH" Value="SCREENING"/>
      <ItemData ItemOID="IT.LB.LBDTC" Value="2012-10-30T14:26"/>
      <ItemData ItemOID="IT.LB.LBDY" Value="-16"/>
    </ItemGroupData>
    <ItemGroupData ItemGroupOID="IG.LB" data:ItemGroupDataSeq="68">
      <ItemData ItemOID="IT.LB.STUDYID" Value="CDISCPILOT01"/>
      <ItemData ItemOID="IT.LB.DOMAIN" Value="LB"/>
      <ItemData ItemOID="IT.LB.USUBJID" Value="CDISC002"/>
      <ItemData ItemOID="IT.LB.LBSEQ" Value="24"/>
      <ItemData ItemOID="IT.LB.LBTESTCD" Value="MCV"/>
      <ItemData ItemOID="IT.LB.LBTEST" Value="Ery. Mean Corpuscular Volume"/>
      <ItemData ItemOID="IT.LB.LBCAT" Value="HEMATOLOGY"/>
      <ItemData ItemOID="IT.LB.LBORRES" Value="93"/>
      <ItemData ItemOID="IT.LB.LBORRESU" Value="fL"/>
      <ItemData ItemOID="IT.LB.LBORNRLO" Value="80"/>
      <ItemData ItemOID="IT.LB.LBORNRHI" Value="100"/>
      <ItemData ItemOID="IT.LB.LBSTRESC" Value="93"/>
      <ItemData ItemOID="IT.LB.LBSTRESN" Value="93"/>
      <ItemData ItemOID="IT.LB.LBSTRESU" Value="fL"/>
      <ItemData ItemOID="IT.LB.LBSTNRLO" Value="80"/>
      <ItemData ItemOID="IT.LB.LBSTNRHI" Value="100"/>
      <ItemData ItemOID="IT.LB.LBNRIND" Value="NORMAL"/>
      <ItemData ItemOID="IT.LB.LBLOBXFL" Value="Y"/>
      <ItemData ItemOID="IT.LB.VISITNUM" Value="1"/>
      <ItemData ItemOID="IT.LB.VISIT" Value="SCREENING 1"/>
      <ItemData ItemOID="IT.LB.EPOCH" Value="SCREENING"/>
      <ItemData ItemOID="IT.LB.LBDTC" Value="2012-10-30T14:26"/>
      <ItemData ItemOID="IT.LB.LBDY" Value="-16"/>
    </ItemGroupData>
    <ItemGroupData ItemGroupOID="IG.LB" data:ItemGroupDataSeq="69">
      <ItemData ItemOID="IT.LB.STUDYID" Value="CDISCPILOT01"/>
      <ItemData ItemOID="IT.LB.DOMAIN" Value="LB"/>
      <ItemData ItemOID="IT.LB.USUBJID" Value="CDISC002"/>
      <ItemData ItemOID="IT.LB.LBSEQ" Value="25"/>
      <ItemData ItemOID="IT.LB.LBTESTCD" Value="MONO"/>
      <ItemData ItemOID="IT.LB.LBTEST" Value="Monocytes"/>
      <ItemData ItemOID="IT.LB.LBCAT" Value="HEMATOLOGY"/>
      <ItemData ItemOID="IT.LB.LBORRES" Value="0.64"/>
      <ItemData ItemOID="IT.LB.LBORRESU" Value="10^9/L"/>
      <ItemData ItemOID="IT.LB.LBORNRLO" Value="0.12"/>
      <ItemData ItemOID="IT.LB.LBORNRHI" Value="0.92"/>
      <ItemData ItemOID="IT.LB.LBSTRESC" Value="0.64"/>
      <ItemData ItemOID="IT.LB.LBSTRESN" Value="0.64"/>
      <ItemData ItemOID="IT.LB.LBSTRESU" Value="10^9/L"/>
      <ItemData ItemOID="IT.LB.LBSTNRLO" Value="0.12"/>
      <ItemData ItemOID="IT.LB.LBSTNRHI" Value="0.92"/>
      <ItemData ItemOID="IT.LB.LBNRIND" Value="NORMAL"/>
      <ItemData ItemOID="IT.LB.LBLOBXFL" Value="Y"/>
      <ItemData ItemOID="IT.LB.VISITNUM" Value="1"/>
      <ItemData ItemOID="IT.LB.VISIT" Value="SCREENING 1"/>
      <ItemData ItemOID="IT.LB.EPOCH" Value="SCREENING"/>
      <ItemData ItemOID="IT.LB.LBDTC" Value="2012-10-30T14:26"/>
      <ItemData ItemOID="IT.LB.LBDY" Value="-16"/>
    </ItemGroupData>
    <ItemGroupData ItemGroupOID="IG.LB" data:ItemGroupDataSeq="70">
      <ItemData ItemOID="IT.LB.STUDYID" Value="CDISCPILOT01"/>
      <ItemData ItemOID="IT.LB.DOMAIN" Value="LB"/>
      <ItemData ItemOID="IT.LB.USUBJID" Value="CDISC002"/>
      <ItemData ItemOID="IT.LB.LBSEQ" Value="29"/>
      <ItemData ItemOID="IT.LB.LBTESTCD" Value="PLAT"/>
      <ItemData ItemOID="IT.LB.LBTEST" Value="Platelets"/>
      <ItemData ItemOID="IT.LB.LBCAT" Value="HEMATOLOGY"/>
      <ItemData ItemOID="IT.LB.LBORRES" Value="347"/>
      <ItemData ItemOID="IT.LB.LBORRESU" Value="10^9/L"/>
      <ItemData ItemOID="IT.LB.LBORNRLO" Value="130"/>
      <ItemData ItemOID="IT.LB.LBORNRHI" Value="394"/>
      <ItemData ItemOID="IT.LB.LBSTRESC" Value="347"/>
      <ItemData ItemOID="IT.LB.LBSTRESN" Value="347"/>
      <ItemData ItemOID="IT.LB.LBSTRESU" Value="10^9/L"/>
      <ItemData ItemOID="IT.LB.LBSTNRLO" Value="130"/>
      <ItemData ItemOID="IT.LB.LBSTNRHI" Value="394"/>
      <ItemData ItemOID="IT.LB.LBNRIND" Value="NORMAL"/>
      <ItemData ItemOID="IT.LB.LBLOBXFL" Value="Y"/>
      <ItemData ItemOID="IT.LB.VISITNUM" Value="1"/>
      <ItemData ItemOID="IT.LB.VISIT" Value="SCREENING 1"/>
      <ItemData ItemOID="IT.LB.EPOCH" Value="SCREENING"/>
      <ItemData ItemOID="IT.LB.LBDTC" Value="2012-10-30T14:26"/>
      <ItemData ItemOID="IT.LB.LBDY" Value="-16"/>
    </ItemGroupData>
    <ItemGroupData ItemGroupOID="IG.LB" data:ItemGroupDataSeq="71">
      <ItemData ItemOID="IT.LB.STUDYID" Value="CDISCPILOT01"/>
      <ItemData ItemOID="IT.LB.DOMAIN" Value="LB"/>
      <ItemData ItemOID="IT.LB.USUBJID" Value="CDISC002"/>
      <ItemData ItemOID="IT.LB.LBSEQ" Value="31"/>
      <ItemData ItemOID="IT.LB.LBTESTCD" Value="RBC"/>
      <ItemData ItemOID="IT.LB.LBTEST" Value="Erythrocytes"/>
      <ItemData ItemOID="IT.LB.LBCAT" Value="HEMATOLOGY"/>
      <ItemData ItemOID="IT.LB.LBORRES" Value="5.10"/>
      <ItemData ItemOID="IT.LB.LBORRESU" Value="10^12/L"/>
      <ItemData ItemOID="IT.LB.LBORNRLO" Value="3.9"/>
      <ItemData ItemOID="IT.LB.LBORNRHI" Value="5.5"/>
      <ItemData ItemOID="IT.LB.LBSTRESC" Value="5.1"/>
      <ItemData ItemOID="IT.LB.LBSTRESN" Value="5.1"/>
      <ItemData ItemOID="IT.LB.LBSTRESU" Value="10^12/L"/>
      <ItemData ItemOID="IT.LB.LBSTNRLO" Value="3.9"/>
      <ItemData ItemOID="IT.LB.LBSTNRHI" Value="5.5"/>
      <ItemData ItemOID="IT.LB.LBNRIND" Value="NORMAL"/>
      <ItemData ItemOID="IT.LB.LBLOBXFL" Value="Y"/>
      <ItemData ItemOID="IT.LB.VISITNUM" Value="1"/>
      <ItemData ItemOID="IT.LB.VISIT" Value="SCREENING 1"/>
      <ItemData ItemOID="IT.LB.EPOCH" Value="SCREENING"/>
      <ItemData ItemOID="IT.LB.LBDTC" Value="2012-10-30T14:26"/>
      <ItemData ItemOID="IT.LB.LBDY" Value="-16"/>
    </ItemGroupData>
    <ItemGroupData ItemGroupOID="IG.LB" data:ItemGroupDataSeq="72">
      <ItemData ItemOID="IT.LB.STUDYID" Value="CDISCPILOT01"/>
      <ItemData ItemOID="IT.LB.DOMAIN" Value="LB"/>
      <ItemData ItemOID="IT.LB.USUBJID" Value="CDISC002"/>
      <ItemData ItemOID="IT.LB.LBSEQ" Value="37"/>
      <ItemData ItemOID="IT.LB.LBTESTCD" Value="WBC"/>
      <ItemData ItemOID="IT.LB.LBTEST" Value="Leukocytes"/>
      <ItemData ItemOID="IT.LB.LBCAT" Value="HEMATOLOGY"/>
      <ItemData ItemOID="IT.LB.LBORRES" Value="7.18"/>
      <ItemData ItemOID="IT.LB.LBORRESU" Value="10^9/L"/>
      <ItemData ItemOID="IT.LB.LBORNRLO" Value="3.8"/>
      <ItemData ItemOID="IT.LB.LBORNRHI" Value="10.7"/>
      <ItemData ItemOID="IT.LB.LBSTRESC" Value="7.18"/>
      <ItemData ItemOID="IT.LB.LBSTRESN" Value="7.18"/>
      <ItemData ItemOID="IT.LB.LBSTRESU" Value="10^9/L"/>
      <ItemData ItemOID="IT.LB.LBSTNRLO" Value="3.8"/>
      <ItemData ItemOID="IT.LB.LBSTNRHI" Value="10.7"/>
      <ItemData ItemOID="IT.LB.LBNRIND" Value="NORMAL"/>
      <ItemData ItemOID="IT.LB.LBLOBXFL" Value="Y"/>
      <ItemData ItemOID="IT.LB.VISITNUM" Value="1"/>
      <ItemData ItemOID="IT.LB.VISIT" Value="SCREENING 1"/>
      <ItemData ItemOID="IT.LB.EPOCH" Value="SCREENING"/>
      <ItemData ItemOID="IT.LB.LBDTC" Value="2012-10-30T14:26"/>
      <ItemData ItemOID="IT.LB.LBDY" Value="-16"/>
    </ItemGroupData>
    <ItemGroupData ItemGroupOID="IG.LB" data:ItemGroupDataSeq="73">
      <ItemData ItemOID="IT.LB.STUDYID" Value="CDISCPILOT01"/>
      <ItemData ItemOID="IT.LB.DOMAIN" Value="LB"/>
      <ItemData ItemOID="IT.LB.USUBJID" Value="CDISC002"/>
      <ItemData ItemOID="IT.LB.LBSEQ" Value="42"/>
      <ItemData ItemOID="IT.LB.LBTESTCD" Value="BASO"/>
      <ItemData ItemOID="IT.LB.LBTEST" Value="Basophils"/>
      <ItemData ItemOID="IT.LB.LBCAT" Value="HEMATOLOGY"/>
      <ItemData ItemOID="IT.LB.LBORRES" Value="0.03"/>
      <ItemData ItemOID="IT.LB.LBORRESU" Value="10^9/L"/>
      <ItemData ItemOID="IT.LB.LBORNRLO" Value="0"/>
      <ItemData ItemOID="IT.LB.LBORNRHI" Value="0.2"/>
      <ItemData ItemOID="IT.LB.LBSTRESC" Value="0.03"/>
      <ItemData ItemOID="IT.LB.LBSTRESN" Value="0.03"/>
      <ItemData ItemOID="IT.LB.LBSTRESU" Value="10^9/L"/>
      <ItemData ItemOID="IT.LB.LBSTNRLO" Value="0"/>
      <ItemData ItemOID="IT.LB.LBSTNRHI" Value="0.2"/>
      <ItemData ItemOID="IT.LB.LBNRIND" Value="NORMAL"/>
      <ItemData ItemOID="IT.LB.VISITNUM" Value="4"/>
      <ItemData ItemOID="IT.LB.VISIT" Value="WEEK 2"/>
      <ItemData ItemOID="IT.LB.EPOCH" Value="TREATMENT"/>
      <ItemData ItemOID="IT.LB.LBDTC" Value="2012-11-28T10:00"/>
      <ItemData ItemOID="IT.LB.LBDY" Value="14"/>
    </ItemGroupData>
    <ItemGroupData ItemGroupOID="IG.LB" data:ItemGroupDataSeq="74">
      <ItemData ItemOID="IT.LB.STUDYID" Value="CDISCPILOT01"/>
      <ItemData ItemOID="IT.LB.DOMAIN" Value="LB"/>
      <ItemData ItemOID="IT.LB.USUBJID" Value="CDISC002"/>
      <ItemData ItemOID="IT.LB.LBSEQ" Value="51"/>
      <ItemData ItemOID="IT.LB.LBTESTCD" Value="EOS"/>
      <ItemData ItemOID="IT.LB.LBTEST" Value="Eosinophils"/>
      <ItemData ItemOID="IT.LB.LBCAT" Value="HEMATOLOGY"/>
      <ItemData ItemOID="IT.LB.LBORRES" Value="0.06"/>
      <ItemData ItemOID="IT.LB.LBORRESU" Value="10^9/L"/>
      <ItemData ItemOID="IT.LB.LBORNRLO" Value="0"/>
      <ItemData ItemOID="IT.LB.LBORNRHI" Value="0.57"/>
      <ItemData ItemOID="IT.LB.LBSTRESC" Value="0.06"/>
      <ItemData ItemOID="IT.LB.LBSTRESN" Value="0.06"/>
      <ItemData ItemOID="IT.LB.LBSTRESU" Value="10^9/L"/>
      <ItemData ItemOID="IT.LB.LBSTNRLO" Value="0"/>
      <ItemData ItemOID="IT.LB.LBSTNRHI" Value="0.57"/>
      <ItemData ItemOID="IT.LB.LBNRIND" Value="NORMAL"/>
      <ItemData ItemOID="IT.LB.VISITNUM" Value="4"/>
      <ItemData ItemOID="IT.LB.VISIT" Value="WEEK 2"/>
      <ItemData ItemOID="IT.LB.EPOCH" Value="TREATMENT"/>
      <ItemData ItemOID="IT.LB.LBDTC" Value="2012-11-28T10:00"/>
      <ItemData ItemOID="IT.LB.LBDY" Value="14"/>
    </ItemGroupData>
    <ItemGroupData ItemGroupOID="IG.LB" data:ItemGroupDataSeq="75">
      <ItemData ItemOID="IT.LB.STUDYID" Value="CDISCPILOT01"/>
      <ItemData ItemOID="IT.LB.DOMAIN" Value="LB"/>
      <ItemData ItemOID="IT.LB.USUBJID" Value="CDISC002"/>
      <ItemData ItemOID="IT.LB.LBSEQ" Value="54"/>
      <ItemData ItemOID="IT.LB.LBTESTCD" Value="HCT"/>
      <ItemData ItemOID="IT.LB.LBTEST" Value="Hematocrit"/>
      <ItemData ItemOID="IT.LB.LBCAT" Value="HEMATOLOGY"/>
      <ItemData ItemOID="IT.LB.LBORRES" Value="42.0"/>
      <ItemData ItemOID="IT.LB.LBORRESU" Value="%"/>
      <ItemData ItemOID="IT.LB.LBORNRLO" Value="34"/>
      <ItemData ItemOID="IT.LB.LBORNRHI" Value="48"/>
      <ItemData ItemOID="IT.LB.LBSTRESC" Value="0.42"/>
      <ItemData ItemOID="IT.LB.LBSTRESN" Value="0.42"/>
      <ItemData ItemOID="IT.LB.LBSTNRLO" Value="0.34"/>
      <ItemData ItemOID="IT.LB.LBSTNRHI" Value="0.48"/>
      <ItemData ItemOID="IT.LB.LBNRIND" Value="NORMAL"/>
      <ItemData ItemOID="IT.LB.VISITNUM" Value="4"/>
      <ItemData ItemOID="IT.LB.VISIT" Value="WEEK 2"/>
      <ItemData ItemOID="IT.LB.EPOCH" Value="TREATMENT"/>
      <ItemData ItemOID="IT.LB.LBDTC" Value="2012-11-28T10:00"/>
      <ItemData ItemOID="IT.LB.LBDY" Value="14"/>
    </ItemGroupData>
    <ItemGroupData ItemGroupOID="IG.LB" data:ItemGroupDataSeq="76">
      <ItemData ItemOID="IT.LB.STUDYID" Value="CDISCPILOT01"/>
      <ItemData ItemOID="IT.LB.DOMAIN" Value="LB"/>
      <ItemData ItemOID="IT.LB.USUBJID" Value="CDISC002"/>
      <ItemData ItemOID="IT.LB.LBSEQ" Value="55"/>
      <ItemData ItemOID="IT.LB.LBTESTCD" Value="HGB"/>
      <ItemData ItemOID="IT.LB.LBTEST" Value="Hemoglobin"/>
      <ItemData ItemOID="IT.LB.LBCAT" Value="HEMATOLOGY"/>
      <ItemData ItemOID="IT.LB.LBORRES" Value="13.8"/>
      <ItemData ItemOID="IT.LB.LBORRESU" Value="g/dL"/>
      <ItemData ItemOID="IT.LB.LBORNRLO" Value="11.5"/>
      <ItemData ItemOID="IT.LB.LBORNRHI" Value="15.8"/>
      <ItemData ItemOID="IT.LB.LBSTRESC" Value="8.56428"/>
      <ItemData ItemOID="IT.LB.LBSTRESN" Value="8.56428"/>
      <ItemData ItemOID="IT.LB.LBSTRESU" Value="mmol/L"/>
      <ItemData ItemOID="IT.LB.LBSTNRLO" Value="7.14"/>
      <ItemData ItemOID="IT.LB.LBSTNRHI" Value="9.81"/>
      <ItemData ItemOID="IT.LB.LBNRIND" Value="NORMAL"/>
      <ItemData ItemOID="IT.LB.VISITNUM" Value="4"/>
      <ItemData ItemOID="IT.LB.VISIT" Value="WEEK 2"/>
      <ItemData ItemOID="IT.LB.EPOCH" Value="TREATMENT"/>
      <ItemData ItemOID="IT.LB.LBDTC" Value="2012-11-28T10:00"/>
      <ItemData ItemOID="IT.LB.LBDY" Value="14"/>
    </ItemGroupData>
    <ItemGroupData ItemGroupOID="IG.LB" data:ItemGroupDataSeq="77">
      <ItemData ItemOID="IT.LB.STUDYID" Value="CDISCPILOT01"/>
      <ItemData ItemOID="IT.LB.DOMAIN" Value="LB"/>
      <ItemData ItemOID="IT.LB.USUBJID" Value="CDISC002"/>
      <ItemData ItemOID="IT.LB.LBSEQ" Value="58"/>
      <ItemData ItemOID="IT.LB.LBTESTCD" Value="LYM"/>
      <ItemData ItemOID="IT.LB.LBTEST" Value="Lymphocytes"/>
      <ItemData ItemOID="IT.LB.LBCAT" Value="HEMATOLOGY"/>
      <ItemData ItemOID="IT.LB.LBORRES" Value="1.17"/>
      <ItemData ItemOID="IT.LB.LBORRESU" Value="10^9/L"/>
      <ItemData ItemOID="IT.LB.LBORNRLO" Value="0.8"/>
      <ItemData ItemOID="IT.LB.LBORNRHI" Value="3"/>
      <ItemData ItemOID="IT.LB.LBSTRESC" Value="1.17"/>
      <ItemData ItemOID="IT.LB.LBSTRESN" Value="1.17"/>
      <ItemData ItemOID="IT.LB.LBSTRESU" Value="10^9/L"/>
      <ItemData ItemOID="IT.LB.LBSTNRLO" Value="0.8"/>
      <ItemData ItemOID="IT.LB.LBSTNRHI" Value="3"/>
      <ItemData ItemOID="IT.LB.LBNRIND" Value="NORMAL"/>
      <ItemData ItemOID="IT.LB.VISITNUM" Value="4"/>
      <ItemData ItemOID="IT.LB.VISIT" Value="WEEK 2"/>
      <ItemData ItemOID="IT.LB.EPOCH" Value="TREATMENT"/>
      <ItemData ItemOID="IT.LB.LBDTC" Value="2012-11-28T10:00"/>
      <ItemData ItemOID="IT.LB.LBDY" Value="14"/>
    </ItemGroupData>
    <ItemGroupData ItemGroupOID="IG.LB" data:ItemGroupDataSeq="78">
      <ItemData ItemOID="IT.LB.STUDYID" Value="CDISCPILOT01"/>
      <ItemData ItemOID="IT.LB.DOMAIN" Value="LB"/>
      <ItemData ItemOID="IT.LB.USUBJID" Value="CDISC002"/>
      <ItemData ItemOID="IT.LB.LBSEQ" Value="59"/>
      <ItemData ItemOID="IT.LB.LBTESTCD" Value="MCH"/>
      <ItemData ItemOID="IT.LB.LBTEST" Value="Ery. Mean Corpuscular Hemoglobin"/>
      <ItemData ItemOID="IT.LB.LBCAT" Value="HEMATOLOGY"/>
      <ItemData ItemOID="IT.LB.LBORRES" Value="31"/>
      <ItemData ItemOID="IT.LB.LBORRESU" Value="pg"/>
      <ItemData ItemOID="IT.LB.LBORNRLO" Value="26"/>
      <ItemData ItemOID="IT.LB.LBORNRHI" Value="34"/>
      <ItemData ItemOID="IT.LB.LBSTRESC" Value="1.92386"/>
      <ItemData ItemOID="IT.LB.LBSTRESN" Value="1.92386"/>
      <ItemData ItemOID="IT.LB.LBSTRESU" Value="fmol"/>
      <ItemData ItemOID="IT.LB.LBSTNRLO" Value="1.6"/>
      <ItemData ItemOID="IT.LB.LBSTNRHI" Value="2.1"/>
      <ItemData ItemOID="IT.LB.LBNRIND" Value="NORMAL"/>
      <ItemData ItemOID="IT.LB.VISITNUM" Value="4"/>
      <ItemData ItemOID="IT.LB.VISIT" Value="WEEK 2"/>
      <ItemData ItemOID="IT.LB.EPOCH" Value="TREATMENT"/>
      <ItemData ItemOID="IT.LB.LBDTC" Value="2012-11-28T10:00"/>
      <ItemData ItemOID="IT.LB.LBDY" Value="14"/>
    </ItemGroupData>
    <ItemGroupData ItemGroupOID="IG.LB" data:ItemGroupDataSeq="79">
      <ItemData ItemOID="IT.LB.STUDYID" Value="CDISCPILOT01"/>
      <ItemData ItemOID="IT.LB.DOMAIN" Value="LB"/>
      <ItemData ItemOID="IT.LB.USUBJID" Value="CDISC002"/>
      <ItemData ItemOID="IT.LB.LBSEQ" Value="60"/>
      <ItemData ItemOID="IT.LB.LBTESTCD" Value="MCHC"/>
      <ItemData ItemOID="IT.LB.LBTEST" Value="Ery. Mean Corpuscular HGB Concentration"/>
      <ItemData ItemOID="IT.LB.LBCAT" Value="HEMATOLOGY"/>
      <ItemData ItemOID="IT.LB.LBORRES" Value="33"/>
      <ItemData ItemOID="IT.LB.LBORRESU" Value="g/dL"/>
      <ItemData ItemOID="IT.LB.LBORNRLO" Value="31"/>
      <ItemData ItemOID="IT.LB.LBORNRHI" Value="38"/>
      <ItemData ItemOID="IT.LB.LBSTRESC" Value="20.4798"/>
      <ItemData ItemOID="IT.LB.LBSTRESN" Value="20.4798"/>
      <ItemData ItemOID="IT.LB.LBSTRESU" Value="mmol/L"/>
      <ItemData ItemOID="IT.LB.LBSTNRLO" Value="19"/>
      <ItemData ItemOID="IT.LB.LBSTNRHI" Value="24"/>
      <ItemData ItemOID="IT.LB.LBNRIND" Value="NORMAL"/>
      <ItemData ItemOID="IT.LB.VISITNUM" Value="4"/>
      <ItemData ItemOID="IT.LB.VISIT" Value="WEEK 2"/>
      <ItemData ItemOID="IT.LB.EPOCH" Value="TREATMENT"/>
      <ItemData ItemOID="IT.LB.LBDTC" Value="2012-11-28T10:00"/>
      <ItemData ItemOID="IT.LB.LBDY" Value="14"/>
    </ItemGroupData>
    <ItemGroupData ItemGroupOID="IG.LB" data:ItemGroupDataSeq="80">
      <ItemData ItemOID="IT.LB.STUDYID" Value="CDISCPILOT01"/>
      <ItemData ItemOID="IT.LB.DOMAIN" Value="LB"/>
      <ItemData ItemOID="IT.LB.USUBJID" Value="CDISC002"/>
      <ItemData ItemOID="IT.LB.LBSEQ" Value="61"/>
      <ItemData ItemOID="IT.LB.LBTESTCD" Value="MCV"/>
      <ItemData ItemOID="IT.LB.LBTEST" Value="Ery. Mean Corpuscular Volume"/>
      <ItemData ItemOID="IT.LB.LBCAT" Value="HEMATOLOGY"/>
      <ItemData ItemOID="IT.LB.LBORRES" Value="92"/>
      <ItemData ItemOID="IT.LB.LBORRESU" Value="fL"/>
      <ItemData ItemOID="IT.LB.LBORNRLO" Value="80"/>
      <ItemData ItemOID="IT.LB.LBORNRHI" Value="100"/>
      <ItemData ItemOID="IT.LB.LBSTRESC" Value="92"/>
      <ItemData ItemOID="IT.LB.LBSTRESN" Value="92"/>
      <ItemData ItemOID="IT.LB.LBSTRESU" Value="fL"/>
      <ItemData ItemOID="IT.LB.LBSTNRLO" Value="80"/>
      <ItemData ItemOID="IT.LB.LBSTNRHI" Value="100"/>
      <ItemData ItemOID="IT.LB.LBNRIND" Value="NORMAL"/>
      <ItemData ItemOID="IT.LB.VISITNUM" Value="4"/>
      <ItemData ItemOID="IT.LB.VISIT" Value="WEEK 2"/>
      <ItemData ItemOID="IT.LB.EPOCH" Value="TREATMENT"/>
      <ItemData ItemOID="IT.LB.LBDTC" Value="2012-11-28T10:00"/>
      <ItemData ItemOID="IT.LB.LBDY" Value="14"/>
    </ItemGroupData>
    <ItemGroupData ItemGroupOID="IG.LB" data:ItemGroupDataSeq="81">
      <ItemData ItemOID="IT.LB.STUDYID" Value="CDISCPILOT01"/>
      <ItemData ItemOID="IT.LB.DOMAIN" Value="LB"/>
      <ItemData ItemOID="IT.LB.USUBJID" Value="CDISC002"/>
      <ItemData ItemOID="IT.LB.LBSEQ" Value="62"/>
      <ItemData ItemOID="IT.LB.LBTESTCD" Value="MONO"/>
      <ItemData ItemOID="IT.LB.LBTEST" Value="Monocytes"/>
      <ItemData ItemOID="IT.LB.LBCAT" Value="HEMATOLOGY"/>
      <ItemData ItemOID="IT.LB.LBORRES" Value="0.92"/>
      <ItemData ItemOID="IT.LB.LBORRESU" Value="10^9/L"/>
      <ItemData ItemOID="IT.LB.LBORNRLO" Value="0.12"/>
      <ItemData ItemOID="IT.LB.LBORNRHI" Value="0.92"/>
      <ItemData ItemOID="IT.LB.LBSTRESC" Value="0.92"/>
      <ItemData ItemOID="IT.LB.LBSTRESN" Value="0.92"/>
      <ItemData ItemOID="IT.LB.LBSTRESU" Value="10^9/L"/>
      <ItemData ItemOID="IT.LB.LBSTNRLO" Value="0.12"/>
      <ItemData ItemOID="IT.LB.LBSTNRHI" Value="0.92"/>
      <ItemData ItemOID="IT.LB.LBNRIND" Value="NORMAL"/>
      <ItemData ItemOID="IT.LB.VISITNUM" Value="4"/>
      <ItemData ItemOID="IT.LB.VISIT" Value="WEEK 2"/>
      <ItemData ItemOID="IT.LB.EPOCH" Value="TREATMENT"/>
      <ItemData ItemOID="IT.LB.LBDTC" Value="2012-11-28T10:00"/>
      <ItemData ItemOID="IT.LB.LBDY" Value="14"/>
    </ItemGroupData>
    <ItemGroupData ItemGroupOID="IG.LB" data:ItemGroupDataSeq="82">
      <ItemData ItemOID="IT.LB.STUDYID" Value="CDISCPILOT01"/>
      <ItemData ItemOID="IT.LB.DOMAIN" Value="LB"/>
      <ItemData ItemOID="IT.LB.USUBJID" Value="CDISC002"/>
      <ItemData ItemOID="IT.LB.LBSEQ" Value="66"/>
      <ItemData ItemOID="IT.LB.LBTESTCD" Value="PLAT"/>
      <ItemData ItemOID="IT.LB.LBTEST" Value="Platelets"/>
      <ItemData ItemOID="IT.LB.LBCAT" Value="HEMATOLOGY"/>
      <ItemData ItemOID="IT.LB.LBORRES" Value="330"/>
      <ItemData ItemOID="IT.LB.LBORRESU" Value="10^9/L"/>
      <ItemData ItemOID="IT.LB.LBORNRLO" Value="130"/>
      <ItemData ItemOID="IT.LB.LBORNRHI" Value="394"/>
      <ItemData ItemOID="IT.LB.LBSTRESC" Value="330"/>
      <ItemData ItemOID="IT.LB.LBSTRESN" Value="330"/>
      <ItemData ItemOID="IT.LB.LBSTRESU" Value="10^9/L"/>
      <ItemData ItemOID="IT.LB.LBSTNRLO" Value="130"/>
      <ItemData ItemOID="IT.LB.LBSTNRHI" Value="394"/>
      <ItemData ItemOID="IT.LB.LBNRIND" Value="NORMAL"/>
      <ItemData ItemOID="IT.LB.VISITNUM" Value="4"/>
      <ItemData ItemOID="IT.LB.VISIT" Value="WEEK 2"/>
      <ItemData ItemOID="IT.LB.EPOCH" Value="TREATMENT"/>
      <ItemData ItemOID="IT.LB.LBDTC" Value="2012-11-28T10:00"/>
      <ItemData ItemOID="IT.LB.LBDY" Value="14"/>
    </ItemGroupData>
    <ItemGroupData ItemGroupOID="IG.LB" data:ItemGroupDataSeq="83">
      <ItemData ItemOID="IT.LB.STUDYID" Value="CDISCPILOT01"/>
      <ItemData ItemOID="IT.LB.DOMAIN" Value="LB"/>
      <ItemData ItemOID="IT.LB.USUBJID" Value="CDISC002"/>
      <ItemData ItemOID="IT.LB.LBSEQ" Value="68"/>
      <ItemData ItemOID="IT.LB.LBTESTCD" Value="RBC"/>
      <ItemData ItemOID="IT.LB.LBTEST" Value="Erythrocytes"/>
      <ItemData ItemOID="IT.LB.LBCAT" Value="HEMATOLOGY"/>
      <ItemData ItemOID="IT.LB.LBORRES" Value="4.50"/>
      <ItemData ItemOID="IT.LB.LBORRESU" Value="10^12/L"/>
      <ItemData ItemOID="IT.LB.LBORNRLO" Value="3.9"/>
      <ItemData ItemOID="IT.LB.LBORNRHI" Value="5.5"/>
      <ItemData ItemOID="IT.LB.LBSTRESC" Value="4.5"/>
      <ItemData ItemOID="IT.LB.LBSTRESN" Value="4.5"/>
      <ItemData ItemOID="IT.LB.LBSTRESU" Value="10^12/L"/>
      <ItemData ItemOID="IT.LB.LBSTNRLO" Value="3.9"/>
      <ItemData ItemOID="IT.LB.LBSTNRHI" Value="5.5"/>
      <ItemData ItemOID="IT.LB.LBNRIND" Value="NORMAL"/>
      <ItemData ItemOID="IT.LB.VISITNUM" Value="4"/>
      <ItemData ItemOID="IT.LB.VISIT" Value="WEEK 2"/>
      <ItemData ItemOID="IT.LB.EPOCH" Value="TREATMENT"/>
      <ItemData ItemOID="IT.LB.LBDTC" Value="2012-11-28T10:00"/>
      <ItemData ItemOID="IT.LB.LBDY" Value="14"/>
    </ItemGroupData>
    <ItemGroupData ItemGroupOID="IG.LB" data:ItemGroupDataSeq="84">
      <ItemData ItemOID="IT.LB.STUDYID" Value="CDISCPILOT01"/>
      <ItemData ItemOID="IT.LB.DOMAIN" Value="LB"/>
      <ItemData ItemOID="IT.LB.USUBJID" Value="CDISC002"/>
      <ItemData ItemOID="IT.LB.LBSEQ" Value="72"/>
      <ItemData ItemOID="IT.LB.LBTESTCD" Value="WBC"/>
      <ItemData ItemOID="IT.LB.LBTEST" Value="Leukocytes"/>
      <ItemData ItemOID="IT.LB.LBCAT" Value="HEMATOLOGY"/>
      <ItemData ItemOID="IT.LB.LBORRES" Value="8.17"/>
      <ItemData ItemOID="IT.LB.LBORRESU" Value="10^9/L"/>
      <ItemData ItemOID="IT.LB.LBORNRLO" Value="3.8"/>
      <ItemData ItemOID="IT.LB.LBORNRHI" Value="10.7"/>
      <ItemData ItemOID="IT.LB.LBSTRESC" Value="8.17"/>
      <ItemData ItemOID="IT.LB.LBSTRESN" Value="8.17"/>
      <ItemData ItemOID="IT.LB.LBSTRESU" Value="10^9/L"/>
      <ItemData ItemOID="IT.LB.LBSTNRLO" Value="3.8"/>
      <ItemData ItemOID="IT.LB.LBSTNRHI" Value="10.7"/>
      <ItemData ItemOID="IT.LB.LBNRIND" Value="NORMAL"/>
      <ItemData ItemOID="IT.LB.VISITNUM" Value="4"/>
      <ItemData ItemOID="IT.LB.VISIT" Value="WEEK 2"/>
      <ItemData ItemOID="IT.LB.EPOCH" Value="TREATMENT"/>
      <ItemData ItemOID="IT.LB.LBDTC" Value="2012-11-28T10:00"/>
      <ItemData ItemOID="IT.LB.LBDY" Value="14"/>
    </ItemGroupData>
    <ItemGroupData ItemGroupOID="IG.LB" data:ItemGroupDataSeq="85">
      <ItemData ItemOID="IT.LB.STUDYID" Value="CDISCPILOT01"/>
      <ItemData ItemOID="IT.LB.DOMAIN" Value="LB"/>
      <ItemData ItemOID="IT.LB.USUBJID" Value="CDISC002"/>
      <ItemData ItemOID="IT.LB.LBSEQ" Value="77"/>
      <ItemData ItemOID="IT.LB.LBTESTCD" Value="BASO"/>
      <ItemData ItemOID="IT.LB.LBTEST" Value="Basophils"/>
      <ItemData ItemOID="IT.LB.LBCAT" Value="HEMATOLOGY"/>
      <ItemData ItemOID="IT.LB.LBORRES" Value="0.04"/>
      <ItemData ItemOID="IT.LB.LBORRESU" Value="10^9/L"/>
      <ItemData ItemOID="IT.LB.LBORNRLO" Value="0"/>
      <ItemData ItemOID="IT.LB.LBORNRHI" Value="0.2"/>
      <ItemData ItemOID="IT.LB.LBSTRESC" Value="0.04"/>
      <ItemData ItemOID="IT.LB.LBSTRESN" Value="0.04"/>
      <ItemData ItemOID="IT.LB.LBSTRESU" Value="10^9/L"/>
      <ItemData ItemOID="IT.LB.LBSTNRLO" Value="0"/>
      <ItemData ItemOID="IT.LB.LBSTNRHI" Value="0.2"/>
      <ItemData ItemOID="IT.LB.LBNRIND" Value="NORMAL"/>
      <ItemData ItemOID="IT.LB.VISITNUM" Value="5"/>
      <ItemData ItemOID="IT.LB.VISIT" Value="WEEK 4"/>
      <ItemData ItemOID="IT.LB.EPOCH" Value="TREATMENT"/>
      <ItemData ItemOID="IT.LB.LBDTC" Value="2012-12-11T12:16"/>
      <ItemData ItemOID="IT.LB.LBDY" Value="27"/>
    </ItemGroupData>
    <ItemGroupData ItemGroupOID="IG.LB" data:ItemGroupDataSeq="86">
      <ItemData ItemOID="IT.LB.STUDYID" Value="CDISCPILOT01"/>
      <ItemData ItemOID="IT.LB.DOMAIN" Value="LB"/>
      <ItemData ItemOID="IT.LB.USUBJID" Value="CDISC002"/>
      <ItemData ItemOID="IT.LB.LBSEQ" Value="85"/>
      <ItemData ItemOID="IT.LB.LBTESTCD" Value="EOS"/>
      <ItemData ItemOID="IT.LB.LBTEST" Value="Eosinophils"/>
      <ItemData ItemOID="IT.LB.LBCAT" Value="HEMATOLOGY"/>
      <ItemData ItemOID="IT.LB.LBORRES" Value="0.04"/>
      <ItemData ItemOID="IT.LB.LBORRESU" Value="10^9/L"/>
      <ItemData ItemOID="IT.LB.LBORNRLO" Value="0"/>
      <ItemData ItemOID="IT.LB.LBORNRHI" Value="0.57"/>
      <ItemData ItemOID="IT.LB.LBSTRESC" Value="0.04"/>
      <ItemData ItemOID="IT.LB.LBSTRESN" Value="0.04"/>
      <ItemData ItemOID="IT.LB.LBSTRESU" Value="10^9/L"/>
      <ItemData ItemOID="IT.LB.LBSTNRLO" Value="0"/>
      <ItemData ItemOID="IT.LB.LBSTNRHI" Value="0.57"/>
      <ItemData ItemOID="IT.LB.LBNRIND" Value="NORMAL"/>
      <ItemData ItemOID="IT.LB.VISITNUM" Value="5"/>
      <ItemData ItemOID="IT.LB.VISIT" Value="WEEK 4"/>
      <ItemData ItemOID="IT.LB.EPOCH" Value="TREATMENT"/>
      <ItemData ItemOID="IT.LB.LBDTC" Value="2012-12-11T12:16"/>
      <ItemData ItemOID="IT.LB.LBDY" Value="27"/>
    </ItemGroupData>
    <ItemGroupData ItemGroupOID="IG.LB" data:ItemGroupDataSeq="87">
      <ItemData ItemOID="IT.LB.STUDYID" Value="CDISCPILOT01"/>
      <ItemData ItemOID="IT.LB.DOMAIN" Value="LB"/>
      <ItemData ItemOID="IT.LB.USUBJID" Value="CDISC002"/>
      <ItemData ItemOID="IT.LB.LBSEQ" Value="88"/>
      <ItemData ItemOID="IT.LB.LBTESTCD" Value="HCT"/>
      <ItemData ItemOID="IT.LB.LBTEST" Value="Hematocrit"/>
      <ItemData ItemOID="IT.LB.LBCAT" Value="HEMATOLOGY"/>
      <ItemData ItemOID="IT.LB.LBORRES" Value="40.0"/>
      <ItemData ItemOID="IT.LB.LBORRESU" Value="%"/>
      <ItemData ItemOID="IT.LB.LBORNRLO" Value="34"/>
      <ItemData ItemOID="IT.LB.LBORNRHI" Value="48"/>
      <ItemData ItemOID="IT.LB.LBSTRESC" Value="0.4"/>
      <ItemData ItemOID="IT.LB.LBSTRESN" Value="0.4"/>
      <ItemData ItemOID="IT.LB.LBSTNRLO" Value="0.34"/>
      <ItemData ItemOID="IT.LB.LBSTNRHI" Value="0.48"/>
      <ItemData ItemOID="IT.LB.LBNRIND" Value="NORMAL"/>
      <ItemData ItemOID="IT.LB.VISITNUM" Value="5"/>
      <ItemData ItemOID="IT.LB.VISIT" Value="WEEK 4"/>
      <ItemData ItemOID="IT.LB.EPOCH" Value="TREATMENT"/>
      <ItemData ItemOID="IT.LB.LBDTC" Value="2012-12-11T12:16"/>
      <ItemData ItemOID="IT.LB.LBDY" Value="27"/>
    </ItemGroupData>
    <ItemGroupData ItemGroupOID="IG.LB" data:ItemGroupDataSeq="88">
      <ItemData ItemOID="IT.LB.STUDYID" Value="CDISCPILOT01"/>
      <ItemData ItemOID="IT.LB.DOMAIN" Value="LB"/>
      <ItemData ItemOID="IT.LB.USUBJID" Value="CDISC002"/>
      <ItemData ItemOID="IT.LB.LBSEQ" Value="89"/>
      <ItemData ItemOID="IT.LB.LBTESTCD" Value="HGB"/>
      <ItemData ItemOID="IT.LB.LBTEST" Value="Hemoglobin"/>
      <ItemData ItemOID="IT.LB.LBCAT" Value="HEMATOLOGY"/>
      <ItemData ItemOID="IT.LB.LBORRES" Value="13.2"/>
      <ItemData ItemOID="IT.LB.LBORRESU" Value="g/dL"/>
      <ItemData ItemOID="IT.LB.LBORNRLO" Value="11.5"/>
      <ItemData ItemOID="IT.LB.LBORNRHI" Value="15.8"/>
      <ItemData ItemOID="IT.LB.LBSTRESC" Value="8.19192"/>
      <ItemData ItemOID="IT.LB.LBSTRESN" Value="8.19192"/>
      <ItemData ItemOID="IT.LB.LBSTRESU" Value="mmol/L"/>
      <ItemData ItemOID="IT.LB.LBSTNRLO" Value="7.14"/>
      <ItemData ItemOID="IT.LB.LBSTNRHI" Value="9.81"/>
      <ItemData ItemOID="IT.LB.LBNRIND" Value="NORMAL"/>
      <ItemData ItemOID="IT.LB.VISITNUM" Value="5"/>
      <ItemData ItemOID="IT.LB.VISIT" Value="WEEK 4"/>
      <ItemData ItemOID="IT.LB.EPOCH" Value="TREATMENT"/>
      <ItemData ItemOID="IT.LB.LBDTC" Value="2012-12-11T12:16"/>
      <ItemData ItemOID="IT.LB.LBDY" Value="27"/>
    </ItemGroupData>
    <ItemGroupData ItemGroupOID="IG.LB" data:ItemGroupDataSeq="89">
      <ItemData ItemOID="IT.LB.STUDYID" Value="CDISCPILOT01"/>
      <ItemData ItemOID="IT.LB.DOMAIN" Value="LB"/>
      <ItemData ItemOID="IT.LB.USUBJID" Value="CDISC002"/>
      <ItemData ItemOID="IT.LB.LBSEQ" Value="91"/>
      <ItemData ItemOID="IT.LB.LBTESTCD" Value="LYM"/>
      <ItemData ItemOID="IT.LB.LBTEST" Value="Lymphocytes"/>
      <ItemData ItemOID="IT.LB.LBCAT" Value="HEMATOLOGY"/>
      <ItemData ItemOID="IT.LB.LBORRES" Value="1.18"/>
      <ItemData ItemOID="IT.LB.LBORRESU" Value="10^9/L"/>
      <ItemData ItemOID="IT.LB.LBORNRLO" Value="0.8"/>
      <ItemData ItemOID="IT.LB.LBORNRHI" Value="3"/>
      <ItemData ItemOID="IT.LB.LBSTRESC" Value="1.18"/>
      <ItemData ItemOID="IT.LB.LBSTRESN" Value="1.18"/>
      <ItemData ItemOID="IT.LB.LBSTRESU" Value="10^9/L"/>
      <ItemData ItemOID="IT.LB.LBSTNRLO" Value="0.8"/>
      <ItemData ItemOID="IT.LB.LBSTNRHI" Value="3"/>
      <ItemData ItemOID="IT.LB.LBNRIND" Value="NORMAL"/>
      <ItemData ItemOID="IT.LB.VISITNUM" Value="5"/>
      <ItemData ItemOID="IT.LB.VISIT" Value="WEEK 4"/>
      <ItemData ItemOID="IT.LB.EPOCH" Value="TREATMENT"/>
      <ItemData ItemOID="IT.LB.LBDTC" Value="2012-12-11T12:16"/>
      <ItemData ItemOID="IT.LB.LBDY" Value="27"/>
    </ItemGroupData>
    <ItemGroupData ItemGroupOID="IG.LB" data:ItemGroupDataSeq="90">
      <ItemData ItemOID="IT.LB.STUDYID" Value="CDISCPILOT01"/>
      <ItemData ItemOID="IT.LB.DOMAIN" Value="LB"/>
      <ItemData ItemOID="IT.LB.USUBJID" Value="CDISC002"/>
      <ItemData ItemOID="IT.LB.LBSEQ" Value="92"/>
      <ItemData ItemOID="IT.LB.LBTESTCD" Value="MCH"/>
      <ItemData ItemOID="IT.LB.LBTEST" Value="Ery. Mean Corpuscular Hemoglobin"/>
      <ItemData ItemOID="IT.LB.LBCAT" Value="HEMATOLOGY"/>
      <ItemData ItemOID="IT.LB.LBORRES" Value="30"/>
      <ItemData ItemOID="IT.LB.LBORRESU" Value="pg"/>
      <ItemData ItemOID="IT.LB.LBORNRLO" Value="26"/>
      <ItemData ItemOID="IT.LB.LBORNRHI" Value="34"/>
      <ItemData ItemOID="IT.LB.LBSTRESC" Value="1.8618"/>
      <ItemData ItemOID="IT.LB.LBSTRESN" Value="1.8618"/>
      <ItemData ItemOID="IT.LB.LBSTRESU" Value="fmol"/>
      <ItemData ItemOID="IT.LB.LBSTNRLO" Value="1.6"/>
      <ItemData ItemOID="IT.LB.LBSTNRHI" Value="2.1"/>
      <ItemData ItemOID="IT.LB.LBNRIND" Value="NORMAL"/>
      <ItemData ItemOID="IT.LB.VISITNUM" Value="5"/>
      <ItemData ItemOID="IT.LB.VISIT" Value="WEEK 4"/>
      <ItemData ItemOID="IT.LB.EPOCH" Value="TREATMENT"/>
      <ItemData ItemOID="IT.LB.LBDTC" Value="2012-12-11T12:16"/>
      <ItemData ItemOID="IT.LB.LBDY" Value="27"/>
    </ItemGroupData>
    <ItemGroupData ItemGroupOID="IG.LB" data:ItemGroupDataSeq="91">
      <ItemData ItemOID="IT.LB.STUDYID" Value="CDISCPILOT01"/>
      <ItemData ItemOID="IT.LB.DOMAIN" Value="LB"/>
      <ItemData ItemOID="IT.LB.USUBJID" Value="CDISC002"/>
      <ItemData ItemOID="IT.LB.LBSEQ" Value="93"/>
      <ItemData ItemOID="IT.LB.LBTESTCD" Value="MCHC"/>
      <ItemData ItemOID="IT.LB.LBTEST" Value="Ery. Mean Corpuscular HGB Concentration"/>
      <ItemData ItemOID="IT.LB.LBCAT" Value="HEMATOLOGY"/>
      <ItemData ItemOID="IT.LB.LBORRES" Value="33"/>
      <ItemData ItemOID="IT.LB.LBORRESU" Value="g/dL"/>
      <ItemData ItemOID="IT.LB.LBORNRLO" Value="31"/>
      <ItemData ItemOID="IT.LB.LBORNRHI" Value="38"/>
      <ItemData ItemOID="IT.LB.LBSTRESC" Value="20.4798"/>
      <ItemData ItemOID="IT.LB.LBSTRESN" Value="20.4798"/>
      <ItemData ItemOID="IT.LB.LBSTRESU" Value="mmol/L"/>
      <ItemData ItemOID="IT.LB.LBSTNRLO" Value="19"/>
      <ItemData ItemOID="IT.LB.LBSTNRHI" Value="24"/>
      <ItemData ItemOID="IT.LB.LBNRIND" Value="NORMAL"/>
      <ItemData ItemOID="IT.LB.VISITNUM" Value="5"/>
      <ItemData ItemOID="IT.LB.VISIT" Value="WEEK 4"/>
      <ItemData ItemOID="IT.LB.EPOCH" Value="TREATMENT"/>
      <ItemData ItemOID="IT.LB.LBDTC" Value="2012-12-11T12:16"/>
      <ItemData ItemOID="IT.LB.LBDY" Value="27"/>
    </ItemGroupData>
    <ItemGroupData ItemGroupOID="IG.LB" data:ItemGroupDataSeq="92">
      <ItemData ItemOID="IT.LB.STUDYID" Value="CDISCPILOT01"/>
      <ItemData ItemOID="IT.LB.DOMAIN" Value="LB"/>
      <ItemData ItemOID="IT.LB.USUBJID" Value="CDISC002"/>
      <ItemData ItemOID="IT.LB.LBSEQ" Value="94"/>
      <ItemData ItemOID="IT.LB.LBTESTCD" Value="MCV"/>
      <ItemData ItemOID="IT.LB.LBTEST" Value="Ery. Mean Corpuscular Volume"/>
      <ItemData ItemOID="IT.LB.LBCAT" Value="HEMATOLOGY"/>
      <ItemData ItemOID="IT.LB.LBORRES" Value="92"/>
      <ItemData ItemOID="IT.LB.LBORRESU" Value="fL"/>
      <ItemData ItemOID="IT.LB.LBORNRLO" Value="80"/>
      <ItemData ItemOID="IT.LB.LBORNRHI" Value="100"/>
      <ItemData ItemOID="IT.LB.LBSTRESC" Value="92"/>
      <ItemData ItemOID="IT.LB.LBSTRESN" Value="92"/>
      <ItemData ItemOID="IT.LB.LBSTRESU" Value="fL"/>
      <ItemData ItemOID="IT.LB.LBSTNRLO" Value="80"/>
      <ItemData ItemOID="IT.LB.LBSTNRHI" Value="100"/>
      <ItemData ItemOID="IT.LB.LBNRIND" Value="NORMAL"/>
      <ItemData ItemOID="IT.LB.VISITNUM" Value="5"/>
      <ItemData ItemOID="IT.LB.VISIT" Value="WEEK 4"/>
      <ItemData ItemOID="IT.LB.EPOCH" Value="TREATMENT"/>
      <ItemData ItemOID="IT.LB.LBDTC" Value="2012-12-11T12:16"/>
      <ItemData ItemOID="IT.LB.LBDY" Value="27"/>
    </ItemGroupData>
    <ItemGroupData ItemGroupOID="IG.LB" data:ItemGroupDataSeq="93">
      <ItemData ItemOID="IT.LB.STUDYID" Value="CDISCPILOT01"/>
      <ItemData ItemOID="IT.LB.DOMAIN" Value="LB"/>
      <ItemData ItemOID="IT.LB.USUBJID" Value="CDISC002"/>
      <ItemData ItemOID="IT.LB.LBSEQ" Value="95"/>
      <ItemData ItemOID="IT.LB.LBTESTCD" Value="MONO"/>
      <ItemData ItemOID="IT.LB.LBTEST" Value="Monocytes"/>
      <ItemData ItemOID="IT.LB.LBCAT" Value="HEMATOLOGY"/>
      <ItemData ItemOID="IT.LB.LBORRES" Value="0.88"/>
      <ItemData ItemOID="IT.LB.LBORRESU" Value="10^9/L"/>
      <ItemData ItemOID="IT.LB.LBORNRLO" Value="0.12"/>
      <ItemData ItemOID="IT.LB.LBORNRHI" Value="0.92"/>
      <ItemData ItemOID="IT.LB.LBSTRESC" Value="0.88"/>
      <ItemData ItemOID="IT.LB.LBSTRESN" Value="0.88"/>
      <ItemData ItemOID="IT.LB.LBSTRESU" Value="10^9/L"/>
      <ItemData ItemOID="IT.LB.LBSTNRLO" Value="0.12"/>
      <ItemData ItemOID="IT.LB.LBSTNRHI" Value="0.92"/>
      <ItemData ItemOID="IT.LB.LBNRIND" Value="NORMAL"/>
      <ItemData ItemOID="IT.LB.VISITNUM" Value="5"/>
      <ItemData ItemOID="IT.LB.VISIT" Value="WEEK 4"/>
      <ItemData ItemOID="IT.LB.EPOCH" Value="TREATMENT"/>
      <ItemData ItemOID="IT.LB.LBDTC" Value="2012-12-11T12:16"/>
      <ItemData ItemOID="IT.LB.LBDY" Value="27"/>
    </ItemGroupData>
    <ItemGroupData ItemGroupOID="IG.LB" data:ItemGroupDataSeq="94">
      <ItemData ItemOID="IT.LB.STUDYID" Value="CDISCPILOT01"/>
      <ItemData ItemOID="IT.LB.DOMAIN" Value="LB"/>
      <ItemData ItemOID="IT.LB.USUBJID" Value="CDISC002"/>
      <ItemData ItemOID="IT.LB.LBSEQ" Value="98"/>
      <ItemData ItemOID="IT.LB.LBTESTCD" Value="PLAT"/>
      <ItemData ItemOID="IT.LB.LBTEST" Value="Platelets"/>
      <ItemData ItemOID="IT.LB.LBCAT" Value="HEMATOLOGY"/>
      <ItemData ItemOID="IT.LB.LBORRES" Value="379"/>
      <ItemData ItemOID="IT.LB.LBORRESU" Value="10^9/L"/>
      <ItemData ItemOID="IT.LB.LBORNRLO" Value="130"/>
      <ItemData ItemOID="IT.LB.LBORNRHI" Value="394"/>
      <ItemData ItemOID="IT.LB.LBSTRESC" Value="379"/>
      <ItemData ItemOID="IT.LB.LBSTRESN" Value="379"/>
      <ItemData ItemOID="IT.LB.LBSTRESU" Value="10^9/L"/>
      <ItemData ItemOID="IT.LB.LBSTNRLO" Value="130"/>
      <ItemData ItemOID="IT.LB.LBSTNRHI" Value="394"/>
      <ItemData ItemOID="IT.LB.LBNRIND" Value="NORMAL"/>
      <ItemData ItemOID="IT.LB.VISITNUM" Value="5"/>
      <ItemData ItemOID="IT.LB.VISIT" Value="WEEK 4"/>
      <ItemData ItemOID="IT.LB.EPOCH" Value="TREATMENT"/>
      <ItemData ItemOID="IT.LB.LBDTC" Value="2012-12-11T12:16"/>
      <ItemData ItemOID="IT.LB.LBDY" Value="27"/>
    </ItemGroupData>
    <ItemGroupData ItemGroupOID="IG.LB" data:ItemGroupDataSeq="95">
      <ItemData ItemOID="IT.LB.STUDYID" Value="CDISCPILOT01"/>
      <ItemData ItemOID="IT.LB.DOMAIN" Value="LB"/>
      <ItemData ItemOID="IT.LB.USUBJID" Value="CDISC002"/>
      <ItemData ItemOID="IT.LB.LBSEQ" Value="100"/>
      <ItemData ItemOID="IT.LB.LBTESTCD" Value="RBC"/>
      <ItemData ItemOID="IT.LB.LBTEST" Value="Erythrocytes"/>
      <ItemData ItemOID="IT.LB.LBCAT" Value="HEMATOLOGY"/>
      <ItemData ItemOID="IT.LB.LBORRES" Value="4.40"/>
      <ItemData ItemOID="IT.LB.LBORRESU" Value="10^12/L"/>
      <ItemData ItemOID="IT.LB.LBORNRLO" Value="3.9"/>
      <ItemData ItemOID="IT.LB.LBORNRHI" Value="5.5"/>
      <ItemData ItemOID="IT.LB.LBSTRESC" Value="4.4"/>
      <ItemData ItemOID="IT.LB.LBSTRESN" Value="4.4"/>
      <ItemData ItemOID="IT.LB.LBSTRESU" Value="10^12/L"/>
      <ItemData ItemOID="IT.LB.LBSTNRLO" Value="3.9"/>
      <ItemData ItemOID="IT.LB.LBSTNRHI" Value="5.5"/>
      <ItemData ItemOID="IT.LB.LBNRIND" Value="NORMAL"/>
      <ItemData ItemOID="IT.LB.VISITNUM" Value="5"/>
      <ItemData ItemOID="IT.LB.VISIT" Value="WEEK 4"/>
      <ItemData ItemOID="IT.LB.EPOCH" Value="TREATMENT"/>
      <ItemData ItemOID="IT.LB.LBDTC" Value="2012-12-11T12:16"/>
      <ItemData ItemOID="IT.LB.LBDY" Value="27"/>
    </ItemGroupData>
    <ItemGroupData ItemGroupOID="IG.LB" data:ItemGroupDataSeq="96">
      <ItemData ItemOID="IT.LB.STUDYID" Value="CDISCPILOT01"/>
      <ItemData ItemOID="IT.LB.DOMAIN" Value="LB"/>
      <ItemData ItemOID="IT.LB.USUBJID" Value="CDISC002"/>
      <ItemData ItemOID="IT.LB.LBSEQ" Value="102"/>
      <ItemData ItemOID="IT.LB.LBTESTCD" Value="WBC"/>
      <ItemData ItemOID="IT.LB.LBTEST" Value="Leukocytes"/>
      <ItemData ItemOID="IT.LB.LBCAT" Value="HEMATOLOGY"/>
      <ItemData ItemOID="IT.LB.LBORRES" Value="7.53"/>
      <ItemData ItemOID="IT.LB.LBORRESU" Value="10^9/L"/>
      <ItemData ItemOID="IT.LB.LBORNRLO" Value="3.8"/>
      <ItemData ItemOID="IT.LB.LBORNRHI" Value="10.7"/>
      <ItemData ItemOID="IT.LB.LBSTRESC" Value="7.53"/>
      <ItemData ItemOID="IT.LB.LBSTRESN" Value="7.53"/>
      <ItemData ItemOID="IT.LB.LBSTRESU" Value="10^9/L"/>
      <ItemData ItemOID="IT.LB.LBSTNRLO" Value="3.8"/>
      <ItemData ItemOID="IT.LB.LBSTNRHI" Value="10.7"/>
      <ItemData ItemOID="IT.LB.LBNRIND" Value="NORMAL"/>
      <ItemData ItemOID="IT.LB.VISITNUM" Value="5"/>
      <ItemData ItemOID="IT.LB.VISIT" Value="WEEK 4"/>
      <ItemData ItemOID="IT.LB.EPOCH" Value="TREATMENT"/>
      <ItemData ItemOID="IT.LB.LBDTC" Value="2012-12-11T12:16"/>
      <ItemData ItemOID="IT.LB.LBDY" Value="27"/>
    </ItemGroupData>
    <ItemGroupData ItemGroupOID="IG.LB" data:ItemGroupDataSeq="97">
      <ItemData ItemOID="IT.LB.STUDYID" Value="CDISCPILOT01"/>
      <ItemData ItemOID="IT.LB.DOMAIN" Value="LB"/>
      <ItemData ItemOID="IT.LB.USUBJID" Value="CDISC002"/>
      <ItemData ItemOID="IT.LB.LBSEQ" Value="107"/>
      <ItemData ItemOID="IT.LB.LBTESTCD" Value="BASO"/>
      <ItemData ItemOID="IT.LB.LBTEST" Value="Basophils"/>
      <ItemData ItemOID="IT.LB.LBCAT" Value="HEMATOLOGY"/>
      <ItemData ItemOID="IT.LB.LBORRES" Value="0.04"/>
      <ItemData ItemOID="IT.LB.LBORRESU" Value="10^9/L"/>
      <ItemData ItemOID="IT.LB.LBORNRLO" Value="0"/>
      <ItemData ItemOID="IT.LB.LBORNRHI" Value="0.2"/>
      <ItemData ItemOID="IT.LB.LBSTRESC" Value="0.04"/>
      <ItemData ItemOID="IT.LB.LBSTRESN" Value="0.04"/>
      <ItemData ItemOID="IT.LB.LBSTRESU" Value="10^9/L"/>
      <ItemData ItemOID="IT.LB.LBSTNRLO" Value="0"/>
      <ItemData ItemOID="IT.LB.LBSTNRHI" Value="0.2"/>
      <ItemData ItemOID="IT.LB.LBNRIND" Value="NORMAL"/>
      <ItemData ItemOID="IT.LB.VISITNUM" Value="7"/>
      <ItemData ItemOID="IT.LB.VISIT" Value="WEEK 6"/>
      <ItemData ItemOID="IT.LB.EPOCH" Value="TREATMENT"/>
      <ItemData ItemOID="IT.LB.LBDTC" Value="2012-12-25T14:00"/>
      <ItemData ItemOID="IT.LB.LBDY" Value="41"/>
    </ItemGroupData>
    <ItemGroupData ItemGroupOID="IG.LB" data:ItemGroupDataSeq="98">
      <ItemData ItemOID="IT.LB.STUDYID" Value="CDISCPILOT01"/>
      <ItemData ItemOID="IT.LB.DOMAIN" Value="LB"/>
      <ItemData ItemOID="IT.LB.USUBJID" Value="CDISC002"/>
      <ItemData ItemOID="IT.LB.LBSEQ" Value="115"/>
      <ItemData ItemOID="IT.LB.LBTESTCD" Value="EOS"/>
      <ItemData ItemOID="IT.LB.LBTEST" Value="Eosinophils"/>
      <ItemData ItemOID="IT.LB.LBCAT" Value="HEMATOLOGY"/>
      <ItemData ItemOID="IT.LB.LBORRES" Value="0.08"/>
      <ItemData ItemOID="IT.LB.LBORRESU" Value="10^9/L"/>
      <ItemData ItemOID="IT.LB.LBORNRLO" Value="0"/>
      <ItemData ItemOID="IT.LB.LBORNRHI" Value="0.57"/>
      <ItemData ItemOID="IT.LB.LBSTRESC" Value="0.08"/>
      <ItemData ItemOID="IT.LB.LBSTRESN" Value="0.08"/>
      <ItemData ItemOID="IT.LB.LBSTRESU" Value="10^9/L"/>
      <ItemData ItemOID="IT.LB.LBSTNRLO" Value="0"/>
      <ItemData ItemOID="IT.LB.LBSTNRHI" Value="0.57"/>
      <ItemData ItemOID="IT.LB.LBNRIND" Value="NORMAL"/>
      <ItemData ItemOID="IT.LB.VISITNUM" Value="7"/>
      <ItemData ItemOID="IT.LB.VISIT" Value="WEEK 6"/>
      <ItemData ItemOID="IT.LB.EPOCH" Value="TREATMENT"/>
      <ItemData ItemOID="IT.LB.LBDTC" Value="2012-12-25T14:00"/>
      <ItemData ItemOID="IT.LB.LBDY" Value="41"/>
    </ItemGroupData>
    <ItemGroupData ItemGroupOID="IG.LB" data:ItemGroupDataSeq="99">
      <ItemData ItemOID="IT.LB.STUDYID" Value="CDISCPILOT01"/>
      <ItemData ItemOID="IT.LB.DOMAIN" Value="LB"/>
      <ItemData ItemOID="IT.LB.USUBJID" Value="CDISC002"/>
      <ItemData ItemOID="IT.LB.LBSEQ" Value="118"/>
      <ItemData ItemOID="IT.LB.LBTESTCD" Value="HCT"/>
      <ItemData ItemOID="IT.LB.LBTEST" Value="Hematocrit"/>
      <ItemData ItemOID="IT.LB.LBCAT" Value="HEMATOLOGY"/>
      <ItemData ItemOID="IT.LB.LBORRES" Value="38.0"/>
      <ItemData ItemOID="IT.LB.LBORRESU" Value="%"/>
      <ItemData ItemOID="IT.LB.LBORNRLO" Value="34"/>
      <ItemData ItemOID="IT.LB.LBORNRHI" Value="48"/>
      <ItemData ItemOID="IT.LB.LBSTRESC" Value="0.38"/>
      <ItemData ItemOID="IT.LB.LBSTRESN" Value="0.38"/>
      <ItemData ItemOID="IT.LB.LBSTNRLO" Value="0.34"/>
      <ItemData ItemOID="IT.LB.LBSTNRHI" Value="0.48"/>
      <ItemData ItemOID="IT.LB.LBNRIND" Value="NORMAL"/>
      <ItemData ItemOID="IT.LB.VISITNUM" Value="7"/>
      <ItemData ItemOID="IT.LB.VISIT" Value="WEEK 6"/>
      <ItemData ItemOID="IT.LB.EPOCH" Value="TREATMENT"/>
      <ItemData ItemOID="IT.LB.LBDTC" Value="2012-12-25T14:00"/>
      <ItemData ItemOID="IT.LB.LBDY" Value="41"/>
    </ItemGroupData>
    <ItemGroupData ItemGroupOID="IG.LB" data:ItemGroupDataSeq="100">
      <ItemData ItemOID="IT.LB.STUDYID" Value="CDISCPILOT01"/>
      <ItemData ItemOID="IT.LB.DOMAIN" Value="LB"/>
      <ItemData ItemOID="IT.LB.USUBJID" Value="CDISC002"/>
      <ItemData ItemOID="IT.LB.LBSEQ" Value="119"/>
      <ItemData ItemOID="IT.LB.LBTESTCD" Value="HGB"/>
      <ItemData ItemOID="IT.LB.LBTEST" Value="Hemoglobin"/>
      <ItemData ItemOID="IT.LB.LBCAT" Value="HEMATOLOGY"/>
      <ItemData ItemOID="IT.LB.LBORRES" Value="12.6"/>
      <ItemData ItemOID="IT.LB.LBORRESU" Value="g/dL"/>
      <ItemData ItemOID="IT.LB.LBORNRLO" Value="11.5"/>
      <ItemData ItemOID="IT.LB.LBORNRHI" Value="15.8"/>
      <ItemData ItemOID="IT.LB.LBSTRESC" Value="7.81956"/>
      <ItemData ItemOID="IT.LB.LBSTRESN" Value="7.81956"/>
      <ItemData ItemOID="IT.LB.LBSTRESU" Value="mmol/L"/>
      <ItemData ItemOID="IT.LB.LBSTNRLO" Value="7.14"/>
      <ItemData ItemOID="IT.LB.LBSTNRHI" Value="9.81"/>
      <ItemData ItemOID="IT.LB.LBNRIND" Value="NORMAL"/>
      <ItemData ItemOID="IT.LB.VISITNUM" Value="7"/>
      <ItemData ItemOID="IT.LB.VISIT" Value="WEEK 6"/>
      <ItemData ItemOID="IT.LB.EPOCH" Value="TREATMENT"/>
      <ItemData ItemOID="IT.LB.LBDTC" Value="2012-12-25T14:00"/>
      <ItemData ItemOID="IT.LB.LBDY" Value="41"/>
    </ItemGroupData>
    <ItemGroupData ItemGroupOID="IG.LB" data:ItemGroupDataSeq="101">
      <ItemData ItemOID="IT.LB.STUDYID" Value="CDISCPILOT01"/>
      <ItemData ItemOID="IT.LB.DOMAIN" Value="LB"/>
      <ItemData ItemOID="IT.LB.USUBJID" Value="CDISC002"/>
      <ItemData ItemOID="IT.LB.LBSEQ" Value="121"/>
      <ItemData ItemOID="IT.LB.LBTESTCD" Value="LYM"/>
      <ItemData ItemOID="IT.LB.LBTEST" Value="Lymphocytes"/>
      <ItemData ItemOID="IT.LB.LBCAT" Value="HEMATOLOGY"/>
      <ItemData ItemOID="IT.LB.LBORRES" Value="1.40"/>
      <ItemData ItemOID="IT.LB.LBORRESU" Value="10^9/L"/>
      <ItemData ItemOID="IT.LB.LBORNRLO" Value="0.8"/>
      <ItemData ItemOID="IT.LB.LBORNRHI" Value="3"/>
      <ItemData ItemOID="IT.LB.LBSTRESC" Value="1.4"/>
      <ItemData ItemOID="IT.LB.LBSTRESN" Value="1.4"/>
      <ItemData ItemOID="IT.LB.LBSTRESU" Value="10^9/L"/>
      <ItemData ItemOID="IT.LB.LBSTNRLO" Value="0.8"/>
      <ItemData ItemOID="IT.LB.LBSTNRHI" Value="3"/>
      <ItemData ItemOID="IT.LB.LBNRIND" Value="NORMAL"/>
      <ItemData ItemOID="IT.LB.VISITNUM" Value="7"/>
      <ItemData ItemOID="IT.LB.VISIT" Value="WEEK 6"/>
      <ItemData ItemOID="IT.LB.EPOCH" Value="TREATMENT"/>
      <ItemData ItemOID="IT.LB.LBDTC" Value="2012-12-25T14:00"/>
      <ItemData ItemOID="IT.LB.LBDY" Value="41"/>
    </ItemGroupData>
    <ItemGroupData ItemGroupOID="IG.LB" data:ItemGroupDataSeq="102">
      <ItemData ItemOID="IT.LB.STUDYID" Value="CDISCPILOT01"/>
      <ItemData ItemOID="IT.LB.DOMAIN" Value="LB"/>
      <ItemData ItemOID="IT.LB.USUBJID" Value="CDISC002"/>
      <ItemData ItemOID="IT.LB.LBSEQ" Value="122"/>
      <ItemData ItemOID="IT.LB.LBTESTCD" Value="MCH"/>
      <ItemData ItemOID="IT.LB.LBTEST" Value="Ery. Mean Corpuscular Hemoglobin"/>
      <ItemData ItemOID="IT.LB.LBCAT" Value="HEMATOLOGY"/>
      <ItemData ItemOID="IT.LB.LBORRES" Value="31"/>
      <ItemData ItemOID="IT.LB.LBORRESU" Value="pg"/>
      <ItemData ItemOID="IT.LB.LBORNRLO" Value="26"/>
      <ItemData ItemOID="IT.LB.LBORNRHI" Value="34"/>
      <ItemData ItemOID="IT.LB.LBSTRESC" Value="1.92386"/>
      <ItemData ItemOID="IT.LB.LBSTRESN" Value="1.92386"/>
      <ItemData ItemOID="IT.LB.LBSTRESU" Value="fmol"/>
      <ItemData ItemOID="IT.LB.LBSTNRLO" Value="1.6"/>
      <ItemData ItemOID="IT.LB.LBSTNRHI" Value="2.1"/>
      <ItemData ItemOID="IT.LB.LBNRIND" Value="NORMAL"/>
      <ItemData ItemOID="IT.LB.VISITNUM" Value="7"/>
      <ItemData ItemOID="IT.LB.VISIT" Value="WEEK 6"/>
      <ItemData ItemOID="IT.LB.EPOCH" Value="TREATMENT"/>
      <ItemData ItemOID="IT.LB.LBDTC" Value="2012-12-25T14:00"/>
      <ItemData ItemOID="IT.LB.LBDY" Value="41"/>
    </ItemGroupData>
    <ItemGroupData ItemGroupOID="IG.LB" data:ItemGroupDataSeq="103">
      <ItemData ItemOID="IT.LB.STUDYID" Value="CDISCPILOT01"/>
      <ItemData ItemOID="IT.LB.DOMAIN" Value="LB"/>
      <ItemData ItemOID="IT.LB.USUBJID" Value="CDISC002"/>
      <ItemData ItemOID="IT.LB.LBSEQ" Value="123"/>
      <ItemData ItemOID="IT.LB.LBTESTCD" Value="MCHC"/>
      <ItemData ItemOID="IT.LB.LBTEST" Value="Ery. Mean Corpuscular HGB Concentration"/>
      <ItemData ItemOID="IT.LB.LBCAT" Value="HEMATOLOGY"/>
      <ItemData ItemOID="IT.LB.LBORRES" Value="34"/>
      <ItemData ItemOID="IT.LB.LBORRESU" Value="g/dL"/>
      <ItemData ItemOID="IT.LB.LBORNRLO" Value="31"/>
      <ItemData ItemOID="IT.LB.LBORNRHI" Value="38"/>
      <ItemData ItemOID="IT.LB.LBSTRESC" Value="21.1004"/>
      <ItemData ItemOID="IT.LB.LBSTRESN" Value="21.1004"/>
      <ItemData ItemOID="IT.LB.LBSTRESU" Value="mmol/L"/>
      <ItemData ItemOID="IT.LB.LBSTNRLO" Value="19"/>
      <ItemData ItemOID="IT.LB.LBSTNRHI" Value="24"/>
      <ItemData ItemOID="IT.LB.LBNRIND" Value="NORMAL"/>
      <ItemData ItemOID="IT.LB.VISITNUM" Value="7"/>
      <ItemData ItemOID="IT.LB.VISIT" Value="WEEK 6"/>
      <ItemData ItemOID="IT.LB.EPOCH" Value="TREATMENT"/>
      <ItemData ItemOID="IT.LB.LBDTC" Value="2012-12-25T14:00"/>
      <ItemData ItemOID="IT.LB.LBDY" Value="41"/>
    </ItemGroupData>
    <ItemGroupData ItemGroupOID="IG.LB" data:ItemGroupDataSeq="104">
      <ItemData ItemOID="IT.LB.STUDYID" Value="CDISCPILOT01"/>
      <ItemData ItemOID="IT.LB.DOMAIN" Value="LB"/>
      <ItemData ItemOID="IT.LB.USUBJID" Value="CDISC002"/>
      <ItemData ItemOID="IT.LB.LBSEQ" Value="124"/>
      <ItemData ItemOID="IT.LB.LBTESTCD" Value="MCV"/>
      <ItemData ItemOID="IT.LB.LBTEST" Value="Ery. Mean Corpuscular Volume"/>
      <ItemData ItemOID="IT.LB.LBCAT" Value="HEMATOLOGY"/>
      <ItemData ItemOID="IT.LB.LBORRES" Value="93"/>
      <ItemData ItemOID="IT.LB.LBORRESU" Value="fL"/>
      <ItemData ItemOID="IT.LB.LBORNRLO" Value="80"/>
      <ItemData ItemOID="IT.LB.LBORNRHI" Value="100"/>
      <ItemData ItemOID="IT.LB.LBSTRESC" Value="93"/>
      <ItemData ItemOID="IT.LB.LBSTRESN" Value="93"/>
      <ItemData ItemOID="IT.LB.LBSTRESU" Value="fL"/>
      <ItemData ItemOID="IT.LB.LBSTNRLO" Value="80"/>
      <ItemData ItemOID="IT.LB.LBSTNRHI" Value="100"/>
      <ItemData ItemOID="IT.LB.LBNRIND" Value="NORMAL"/>
      <ItemData ItemOID="IT.LB.VISITNUM" Value="7"/>
      <ItemData ItemOID="IT.LB.VISIT" Value="WEEK 6"/>
      <ItemData ItemOID="IT.LB.EPOCH" Value="TREATMENT"/>
      <ItemData ItemOID="IT.LB.LBDTC" Value="2012-12-25T14:00"/>
      <ItemData ItemOID="IT.LB.LBDY" Value="41"/>
    </ItemGroupData>
    <ItemGroupData ItemGroupOID="IG.LB" data:ItemGroupDataSeq="105">
      <ItemData ItemOID="IT.LB.STUDYID" Value="CDISCPILOT01"/>
      <ItemData ItemOID="IT.LB.DOMAIN" Value="LB"/>
      <ItemData ItemOID="IT.LB.USUBJID" Value="CDISC002"/>
      <ItemData ItemOID="IT.LB.LBSEQ" Value="125"/>
      <ItemData ItemOID="IT.LB.LBTESTCD" Value="MONO"/>
      <ItemData ItemOID="IT.LB.LBTEST" Value="Monocytes"/>
      <ItemData ItemOID="IT.LB.LBCAT" Value="HEMATOLOGY"/>
      <ItemData ItemOID="IT.LB.LBORRES" Value="0.69"/>
      <ItemData ItemOID="IT.LB.LBORRESU" Value="10^9/L"/>
      <ItemData ItemOID="IT.LB.LBORNRLO" Value="0.12"/>
      <ItemData ItemOID="IT.LB.LBORNRHI" Value="0.92"/>
      <ItemData ItemOID="IT.LB.LBSTRESC" Value="0.69"/>
      <ItemData ItemOID="IT.LB.LBSTRESN" Value="0.69"/>
      <ItemData ItemOID="IT.LB.LBSTRESU" Value="10^9/L"/>
      <ItemData ItemOID="IT.LB.LBSTNRLO" Value="0.12"/>
      <ItemData ItemOID="IT.LB.LBSTNRHI" Value="0.92"/>
      <ItemData ItemOID="IT.LB.LBNRIND" Value="NORMAL"/>
      <ItemData ItemOID="IT.LB.VISITNUM" Value="7"/>
      <ItemData ItemOID="IT.LB.VISIT" Value="WEEK 6"/>
      <ItemData ItemOID="IT.LB.EPOCH" Value="TREATMENT"/>
      <ItemData ItemOID="IT.LB.LBDTC" Value="2012-12-25T14:00"/>
      <ItemData ItemOID="IT.LB.LBDY" Value="41"/>
    </ItemGroupData>
    <ItemGroupData ItemGroupOID="IG.LB" data:ItemGroupDataSeq="106">
      <ItemData ItemOID="IT.LB.STUDYID" Value="CDISCPILOT01"/>
      <ItemData ItemOID="IT.LB.DOMAIN" Value="LB"/>
      <ItemData ItemOID="IT.LB.USUBJID" Value="CDISC002"/>
      <ItemData ItemOID="IT.LB.LBSEQ" Value="128"/>
      <ItemData ItemOID="IT.LB.LBTESTCD" Value="PLAT"/>
      <ItemData ItemOID="IT.LB.LBTEST" Value="Platelets"/>
      <ItemData ItemOID="IT.LB.LBCAT" Value="HEMATOLOGY"/>
      <ItemData ItemOID="IT.LB.LBORRES" Value="326"/>
      <ItemData ItemOID="IT.LB.LBORRESU" Value="10^9/L"/>
      <ItemData ItemOID="IT.LB.LBORNRLO" Value="130"/>
      <ItemData ItemOID="IT.LB.LBORNRHI" Value="394"/>
      <ItemData ItemOID="IT.LB.LBSTRESC" Value="326"/>
      <ItemData ItemOID="IT.LB.LBSTRESN" Value="326"/>
      <ItemData ItemOID="IT.LB.LBSTRESU" Value="10^9/L"/>
      <ItemData ItemOID="IT.LB.LBSTNRLO" Value="130"/>
      <ItemData ItemOID="IT.LB.LBSTNRHI" Value="394"/>
      <ItemData ItemOID="IT.LB.LBNRIND" Value="NORMAL"/>
      <ItemData ItemOID="IT.LB.VISITNUM" Value="7"/>
      <ItemData ItemOID="IT.LB.VISIT" Value="WEEK 6"/>
      <ItemData ItemOID="IT.LB.EPOCH" Value="TREATMENT"/>
      <ItemData ItemOID="IT.LB.LBDTC" Value="2012-12-25T14:00"/>
      <ItemData ItemOID="IT.LB.LBDY" Value="41"/>
    </ItemGroupData>
    <ItemGroupData ItemGroupOID="IG.LB" data:ItemGroupDataSeq="107">
      <ItemData ItemOID="IT.LB.STUDYID" Value="CDISCPILOT01"/>
      <ItemData ItemOID="IT.LB.DOMAIN" Value="LB"/>
      <ItemData ItemOID="IT.LB.USUBJID" Value="CDISC002"/>
      <ItemData ItemOID="IT.LB.LBSEQ" Value="130"/>
      <ItemData ItemOID="IT.LB.LBTESTCD" Value="RBC"/>
      <ItemData ItemOID="IT.LB.LBTEST" Value="Erythrocytes"/>
      <ItemData ItemOID="IT.LB.LBCAT" Value="HEMATOLOGY"/>
      <ItemData ItemOID="IT.LB.LBORRES" Value="4.10"/>
      <ItemData ItemOID="IT.LB.LBORRESU" Value="10^12/L"/>
      <ItemData ItemOID="IT.LB.LBORNRLO" Value="3.9"/>
      <ItemData ItemOID="IT.LB.LBORNRHI" Value="5.5"/>
      <ItemData ItemOID="IT.LB.LBSTRESC" Value="4.1"/>
      <ItemData ItemOID="IT.LB.LBSTRESN" Value="4.1"/>
      <ItemData ItemOID="IT.LB.LBSTRESU" Value="10^12/L"/>
      <ItemData ItemOID="IT.LB.LBSTNRLO" Value="3.9"/>
      <ItemData ItemOID="IT.LB.LBSTNRHI" Value="5.5"/>
      <ItemData ItemOID="IT.LB.LBNRIND" Value="NORMAL"/>
      <ItemData ItemOID="IT.LB.VISITNUM" Value="7"/>
      <ItemData ItemOID="IT.LB.VISIT" Value="WEEK 6"/>
      <ItemData ItemOID="IT.LB.EPOCH" Value="TREATMENT"/>
      <ItemData ItemOID="IT.LB.LBDTC" Value="2012-12-25T14:00"/>
      <ItemData ItemOID="IT.LB.LBDY" Value="41"/>
    </ItemGroupData>
    <ItemGroupData ItemGroupOID="IG.LB" data:ItemGroupDataSeq="108">
      <ItemData ItemOID="IT.LB.STUDYID" Value="CDISCPILOT01"/>
      <ItemData ItemOID="IT.LB.DOMAIN" Value="LB"/>
      <ItemData ItemOID="IT.LB.USUBJID" Value="CDISC002"/>
      <ItemData ItemOID="IT.LB.LBSEQ" Value="132"/>
      <ItemData ItemOID="IT.LB.LBTESTCD" Value="WBC"/>
      <ItemData ItemOID="IT.LB.LBTEST" Value="Leukocytes"/>
      <ItemData ItemOID="IT.LB.LBCAT" Value="HEMATOLOGY"/>
      <ItemData ItemOID="IT.LB.LBORRES" Value="6.26"/>
      <ItemData ItemOID="IT.LB.LBORRESU" Value="10^9/L"/>
      <ItemData ItemOID="IT.LB.LBORNRLO" Value="3.8"/>
      <ItemData ItemOID="IT.LB.LBORNRHI" Value="10.7"/>
      <ItemData ItemOID="IT.LB.LBSTRESC" Value="6.26"/>
      <ItemData ItemOID="IT.LB.LBSTRESN" Value="6.26"/>
      <ItemData ItemOID="IT.LB.LBSTRESU" Value="10^9/L"/>
      <ItemData ItemOID="IT.LB.LBSTNRLO" Value="3.8"/>
      <ItemData ItemOID="IT.LB.LBSTNRHI" Value="10.7"/>
      <ItemData ItemOID="IT.LB.LBNRIND" Value="NORMAL"/>
      <ItemData ItemOID="IT.LB.VISITNUM" Value="7"/>
      <ItemData ItemOID="IT.LB.VISIT" Value="WEEK 6"/>
      <ItemData ItemOID="IT.LB.EPOCH" Value="TREATMENT"/>
      <ItemData ItemOID="IT.LB.LBDTC" Value="2012-12-25T14:00"/>
      <ItemData ItemOID="IT.LB.LBDY" Value="41"/>
    </ItemGroupData>
    <ItemGroupData ItemGroupOID="IG.LB" data:ItemGroupDataSeq="109">
      <ItemData ItemOID="IT.LB.STUDYID" Value="CDISCPILOT01"/>
      <ItemData ItemOID="IT.LB.DOMAIN" Value="LB"/>
      <ItemData ItemOID="IT.LB.USUBJID" Value="CDISC002"/>
      <ItemData ItemOID="IT.LB.LBSEQ" Value="137"/>
      <ItemData ItemOID="IT.LB.LBTESTCD" Value="BASO"/>
      <ItemData ItemOID="IT.LB.LBTEST" Value="Basophils"/>
      <ItemData ItemOID="IT.LB.LBCAT" Value="HEMATOLOGY"/>
      <ItemData ItemOID="IT.LB.LBORRES" Value="0.02"/>
      <ItemData ItemOID="IT.LB.LBORRESU" Value="10^9/L"/>
      <ItemData ItemOID="IT.LB.LBORNRLO" Value="0"/>
      <ItemData ItemOID="IT.LB.LBORNRHI" Value="0.2"/>
      <ItemData ItemOID="IT.LB.LBSTRESC" Value="0.02"/>
      <ItemData ItemOID="IT.LB.LBSTRESN" Value="0.02"/>
      <ItemData ItemOID="IT.LB.LBSTRESU" Value="10^9/L"/>
      <ItemData ItemOID="IT.LB.LBSTNRLO" Value="0"/>
      <ItemData ItemOID="IT.LB.LBSTNRHI" Value="0.2"/>
      <ItemData ItemOID="IT.LB.LBNRIND" Value="NORMAL"/>
      <ItemData ItemOID="IT.LB.VISITNUM" Value="8"/>
      <ItemData ItemOID="IT.LB.VISIT" Value="WEEK 8"/>
      <ItemData ItemOID="IT.LB.EPOCH" Value="TREATMENT"/>
      <ItemData ItemOID="IT.LB.LBDTC" Value="2013-01-08T12:13"/>
      <ItemData ItemOID="IT.LB.LBDY" Value="55"/>
    </ItemGroupData>
    <ItemGroupData ItemGroupOID="IG.LB" data:ItemGroupDataSeq="110">
      <ItemData ItemOID="IT.LB.STUDYID" Value="CDISCPILOT01"/>
      <ItemData ItemOID="IT.LB.DOMAIN" Value="LB"/>
      <ItemData ItemOID="IT.LB.USUBJID" Value="CDISC002"/>
      <ItemData ItemOID="IT.LB.LBSEQ" Value="145"/>
      <ItemData ItemOID="IT.LB.LBTESTCD" Value="EOS"/>
      <ItemData ItemOID="IT.LB.LBTEST" Value="Eosinophils"/>
      <ItemData ItemOID="IT.LB.LBCAT" Value="HEMATOLOGY"/>
      <ItemData ItemOID="IT.LB.LBORRES" Value="0.05"/>
      <ItemData ItemOID="IT.LB.LBORRESU" Value="10^9/L"/>
      <ItemData ItemOID="IT.LB.LBORNRLO" Value="0"/>
      <ItemData ItemOID="IT.LB.LBORNRHI" Value="0.57"/>
      <ItemData ItemOID="IT.LB.LBSTRESC" Value="0.05"/>
      <ItemData ItemOID="IT.LB.LBSTRESN" Value="0.05"/>
      <ItemData ItemOID="IT.LB.LBSTRESU" Value="10^9/L"/>
      <ItemData ItemOID="IT.LB.LBSTNRLO" Value="0"/>
      <ItemData ItemOID="IT.LB.LBSTNRHI" Value="0.57"/>
      <ItemData ItemOID="IT.LB.LBNRIND" Value="NORMAL"/>
      <ItemData ItemOID="IT.LB.VISITNUM" Value="8"/>
      <ItemData ItemOID="IT.LB.VISIT" Value="WEEK 8"/>
      <ItemData ItemOID="IT.LB.EPOCH" Value="TREATMENT"/>
      <ItemData ItemOID="IT.LB.LBDTC" Value="2013-01-08T12:13"/>
      <ItemData ItemOID="IT.LB.LBDY" Value="55"/>
    </ItemGroupData>
    <ItemGroupData ItemGroupOID="IG.LB" data:ItemGroupDataSeq="111">
      <ItemData ItemOID="IT.LB.STUDYID" Value="CDISCPILOT01"/>
      <ItemData ItemOID="IT.LB.DOMAIN" Value="LB"/>
      <ItemData ItemOID="IT.LB.USUBJID" Value="CDISC002"/>
      <ItemData ItemOID="IT.LB.LBSEQ" Value="148"/>
      <ItemData ItemOID="IT.LB.LBTESTCD" Value="HCT"/>
      <ItemData ItemOID="IT.LB.LBTEST" Value="Hematocrit"/>
      <ItemData ItemOID="IT.LB.LBCAT" Value="HEMATOLOGY"/>
      <ItemData ItemOID="IT.LB.LBORRES" Value="42.0"/>
      <ItemData ItemOID="IT.LB.LBORRESU" Value="%"/>
      <ItemData ItemOID="IT.LB.LBORNRLO" Value="34"/>
      <ItemData ItemOID="IT.LB.LBORNRHI" Value="48"/>
      <ItemData ItemOID="IT.LB.LBSTRESC" Value="0.42"/>
      <ItemData ItemOID="IT.LB.LBSTRESN" Value="0.42"/>
      <ItemData ItemOID="IT.LB.LBSTNRLO" Value="0.34"/>
      <ItemData ItemOID="IT.LB.LBSTNRHI" Value="0.48"/>
      <ItemData ItemOID="IT.LB.LBNRIND" Value="NORMAL"/>
      <ItemData ItemOID="IT.LB.VISITNUM" Value="8"/>
      <ItemData ItemOID="IT.LB.VISIT" Value="WEEK 8"/>
      <ItemData ItemOID="IT.LB.EPOCH" Value="TREATMENT"/>
      <ItemData ItemOID="IT.LB.LBDTC" Value="2013-01-08T12:13"/>
      <ItemData ItemOID="IT.LB.LBDY" Value="55"/>
    </ItemGroupData>
    <ItemGroupData ItemGroupOID="IG.LB" data:ItemGroupDataSeq="112">
      <ItemData ItemOID="IT.LB.STUDYID" Value="CDISCPILOT01"/>
      <ItemData ItemOID="IT.LB.DOMAIN" Value="LB"/>
      <ItemData ItemOID="IT.LB.USUBJID" Value="CDISC002"/>
      <ItemData ItemOID="IT.LB.LBSEQ" Value="149"/>
      <ItemData ItemOID="IT.LB.LBTESTCD" Value="HGB"/>
      <ItemData ItemOID="IT.LB.LBTEST" Value="Hemoglobin"/>
      <ItemData ItemOID="IT.LB.LBCAT" Value="HEMATOLOGY"/>
      <ItemData ItemOID="IT.LB.LBORRES" Value="13.9"/>
      <ItemData ItemOID="IT.LB.LBORRESU" Value="g/dL"/>
      <ItemData ItemOID="IT.LB.LBORNRLO" Value="11.5"/>
      <ItemData ItemOID="IT.LB.LBORNRHI" Value="15.8"/>
      <ItemData ItemOID="IT.LB.LBSTRESC" Value="8.62634"/>
      <ItemData ItemOID="IT.LB.LBSTRESN" Value="8.62634"/>
      <ItemData ItemOID="IT.LB.LBSTRESU" Value="mmol/L"/>
      <ItemData ItemOID="IT.LB.LBSTNRLO" Value="7.14"/>
      <ItemData ItemOID="IT.LB.LBSTNRHI" Value="9.81"/>
      <ItemData ItemOID="IT.LB.LBNRIND" Value="NORMAL"/>
      <ItemData ItemOID="IT.LB.VISITNUM" Value="8"/>
      <ItemData ItemOID="IT.LB.VISIT" Value="WEEK 8"/>
      <ItemData ItemOID="IT.LB.EPOCH" Value="TREATMENT"/>
      <ItemData ItemOID="IT.LB.LBDTC" Value="2013-01-08T12:13"/>
      <ItemData ItemOID="IT.LB.LBDY" Value="55"/>
    </ItemGroupData>
    <ItemGroupData ItemGroupOID="IG.LB" data:ItemGroupDataSeq="113">
      <ItemData ItemOID="IT.LB.STUDYID" Value="CDISCPILOT01"/>
      <ItemData ItemOID="IT.LB.DOMAIN" Value="LB"/>
      <ItemData ItemOID="IT.LB.USUBJID" Value="CDISC002"/>
      <ItemData ItemOID="IT.LB.LBSEQ" Value="151"/>
      <ItemData ItemOID="IT.LB.LBTESTCD" Value="LYM"/>
      <ItemData ItemOID="IT.LB.LBTEST" Value="Lymphocytes"/>
      <ItemData ItemOID="IT.LB.LBCAT" Value="HEMATOLOGY"/>
      <ItemData ItemOID="IT.LB.LBORRES" Value="0.95"/>
      <ItemData ItemOID="IT.LB.LBORRESU" Value="10^9/L"/>
      <ItemData ItemOID="IT.LB.LBORNRLO" Value="0.8"/>
      <ItemData ItemOID="IT.LB.LBORNRHI" Value="3"/>
      <ItemData ItemOID="IT.LB.LBSTRESC" Value="0.95"/>
      <ItemData ItemOID="IT.LB.LBSTRESN" Value="0.95"/>
      <ItemData ItemOID="IT.LB.LBSTRESU" Value="10^9/L"/>
      <ItemData ItemOID="IT.LB.LBSTNRLO" Value="0.8"/>
      <ItemData ItemOID="IT.LB.LBSTNRHI" Value="3"/>
      <ItemData ItemOID="IT.LB.LBNRIND" Value="NORMAL"/>
      <ItemData ItemOID="IT.LB.VISITNUM" Value="8"/>
      <ItemData ItemOID="IT.LB.VISIT" Value="WEEK 8"/>
      <ItemData ItemOID="IT.LB.EPOCH" Value="TREATMENT"/>
      <ItemData ItemOID="IT.LB.LBDTC" Value="2013-01-08T12:13"/>
      <ItemData ItemOID="IT.LB.LBDY" Value="55"/>
    </ItemGroupData>
    <ItemGroupData ItemGroupOID="IG.LB" data:ItemGroupDataSeq="114">
      <ItemData ItemOID="IT.LB.STUDYID" Value="CDISCPILOT01"/>
      <ItemData ItemOID="IT.LB.DOMAIN" Value="LB"/>
      <ItemData ItemOID="IT.LB.USUBJID" Value="CDISC002"/>
      <ItemData ItemOID="IT.LB.LBSEQ" Value="152"/>
      <ItemData ItemOID="IT.LB.LBTESTCD" Value="MCH"/>
      <ItemData ItemOID="IT.LB.LBTEST" Value="Ery. Mean Corpuscular Hemoglobin"/>
      <ItemData ItemOID="IT.LB.LBCAT" Value="HEMATOLOGY"/>
      <ItemData ItemOID="IT.LB.LBORRES" Value="31"/>
      <ItemData ItemOID="IT.LB.LBORRESU" Value="pg"/>
      <ItemData ItemOID="IT.LB.LBORNRLO" Value="26"/>
      <ItemData ItemOID="IT.LB.LBORNRHI" Value="34"/>
      <ItemData ItemOID="IT.LB.LBSTRESC" Value="1.92386"/>
      <ItemData ItemOID="IT.LB.LBSTRESN" Value="1.92386"/>
      <ItemData ItemOID="IT.LB.LBSTRESU" Value="fmol"/>
      <ItemData ItemOID="IT.LB.LBSTNRLO" Value="1.6"/>
      <ItemData ItemOID="IT.LB.LBSTNRHI" Value="2.1"/>
      <ItemData ItemOID="IT.LB.LBNRIND" Value="NORMAL"/>
      <ItemData ItemOID="IT.LB.VISITNUM" Value="8"/>
      <ItemData ItemOID="IT.LB.VISIT" Value="WEEK 8"/>
      <ItemData ItemOID="IT.LB.EPOCH" Value="TREATMENT"/>
      <ItemData ItemOID="IT.LB.LBDTC" Value="2013-01-08T12:13"/>
      <ItemData ItemOID="IT.LB.LBDY" Value="55"/>
    </ItemGroupData>
    <ItemGroupData ItemGroupOID="IG.LB" data:ItemGroupDataSeq="115">
      <ItemData ItemOID="IT.LB.STUDYID" Value="CDISCPILOT01"/>
      <ItemData ItemOID="IT.LB.DOMAIN" Value="LB"/>
      <ItemData ItemOID="IT.LB.USUBJID" Value="CDISC002"/>
      <ItemData ItemOID="IT.LB.LBSEQ" Value="153"/>
      <ItemData ItemOID="IT.LB.LBTESTCD" Value="MCHC"/>
      <ItemData ItemOID="IT.LB.LBTEST" Value="Ery. Mean Corpuscular HGB Concentration"/>
      <ItemData ItemOID="IT.LB.LBCAT" Value="HEMATOLOGY"/>
      <ItemData ItemOID="IT.LB.LBORRES" Value="33"/>
      <ItemData ItemOID="IT.LB.LBORRESU" Value="g/dL"/>
      <ItemData ItemOID="IT.LB.LBORNRLO" Value="31"/>
      <ItemData ItemOID="IT.LB.LBORNRHI" Value="38"/>
      <ItemData ItemOID="IT.LB.LBSTRESC" Value="20.4798"/>
      <ItemData ItemOID="IT.LB.LBSTRESN" Value="20.4798"/>
      <ItemData ItemOID="IT.LB.LBSTRESU" Value="mmol/L"/>
      <ItemData ItemOID="IT.LB.LBSTNRLO" Value="19"/>
      <ItemData ItemOID="IT.LB.LBSTNRHI" Value="24"/>
      <ItemData ItemOID="IT.LB.LBNRIND" Value="NORMAL"/>
      <ItemData ItemOID="IT.LB.VISITNUM" Value="8"/>
      <ItemData ItemOID="IT.LB.VISIT" Value="WEEK 8"/>
      <ItemData ItemOID="IT.LB.EPOCH" Value="TREATMENT"/>
      <ItemData ItemOID="IT.LB.LBDTC" Value="2013-01-08T12:13"/>
      <ItemData ItemOID="IT.LB.LBDY" Value="55"/>
    </ItemGroupData>
    <ItemGroupData ItemGroupOID="IG.LB" data:ItemGroupDataSeq="116">
      <ItemData ItemOID="IT.LB.STUDYID" Value="CDISCPILOT01"/>
      <ItemData ItemOID="IT.LB.DOMAIN" Value="LB"/>
      <ItemData ItemOID="IT.LB.USUBJID" Value="CDISC002"/>
      <ItemData ItemOID="IT.LB.LBSEQ" Value="154"/>
      <ItemData ItemOID="IT.LB.LBTESTCD" Value="MCV"/>
      <ItemData ItemOID="IT.LB.LBTEST" Value="Ery. Mean Corpuscular Volume"/>
      <ItemData ItemOID="IT.LB.LBCAT" Value="HEMATOLOGY"/>
      <ItemData ItemOID="IT.LB.LBORRES" Value="93"/>
      <ItemData ItemOID="IT.LB.LBORRESU" Value="fL"/>
      <ItemData ItemOID="IT.LB.LBORNRLO" Value="80"/>
      <ItemData ItemOID="IT.LB.LBORNRHI" Value="100"/>
      <ItemData ItemOID="IT.LB.LBSTRESC" Value="93"/>
      <ItemData ItemOID="IT.LB.LBSTRESN" Value="93"/>
      <ItemData ItemOID="IT.LB.LBSTRESU" Value="fL"/>
      <ItemData ItemOID="IT.LB.LBSTNRLO" Value="80"/>
      <ItemData ItemOID="IT.LB.LBSTNRHI" Value="100"/>
      <ItemData ItemOID="IT.LB.LBNRIND" Value="NORMAL"/>
      <ItemData ItemOID="IT.LB.VISITNUM" Value="8"/>
      <ItemData ItemOID="IT.LB.VISIT" Value="WEEK 8"/>
      <ItemData ItemOID="IT.LB.EPOCH" Value="TREATMENT"/>
      <ItemData ItemOID="IT.LB.LBDTC" Value="2013-01-08T12:13"/>
      <ItemData ItemOID="IT.LB.LBDY" Value="55"/>
    </ItemGroupData>
    <ItemGroupData ItemGroupOID="IG.LB" data:ItemGroupDataSeq="117">
      <ItemData ItemOID="IT.LB.STUDYID" Value="CDISCPILOT01"/>
      <ItemData ItemOID="IT.LB.DOMAIN" Value="LB"/>
      <ItemData ItemOID="IT.LB.USUBJID" Value="CDISC002"/>
      <ItemData ItemOID="IT.LB.LBSEQ" Value="155"/>
      <ItemData ItemOID="IT.LB.LBTESTCD" Value="MONO"/>
      <ItemData ItemOID="IT.LB.LBTEST" Value="Monocytes"/>
      <ItemData ItemOID="IT.LB.LBCAT" Value="HEMATOLOGY"/>
      <ItemData ItemOID="IT.LB.LBORRES" Value="0.80"/>
      <ItemData ItemOID="IT.LB.LBORRESU" Value="10^9/L"/>
      <ItemData ItemOID="IT.LB.LBORNRLO" Value="0.12"/>
      <ItemData ItemOID="IT.LB.LBORNRHI" Value="0.92"/>
      <ItemData ItemOID="IT.LB.LBSTRESC" Value="0.8"/>
      <ItemData ItemOID="IT.LB.LBSTRESN" Value="0.8"/>
      <ItemData ItemOID="IT.LB.LBSTRESU" Value="10^9/L"/>
      <ItemData ItemOID="IT.LB.LBSTNRLO" Value="0.12"/>
      <ItemData ItemOID="IT.LB.LBSTNRHI" Value="0.92"/>
      <ItemData ItemOID="IT.LB.LBNRIND" Value="NORMAL"/>
      <ItemData ItemOID="IT.LB.VISITNUM" Value="8"/>
      <ItemData ItemOID="IT.LB.VISIT" Value="WEEK 8"/>
      <ItemData ItemOID="IT.LB.EPOCH" Value="TREATMENT"/>
      <ItemData ItemOID="IT.LB.LBDTC" Value="2013-01-08T12:13"/>
      <ItemData ItemOID="IT.LB.LBDY" Value="55"/>
    </ItemGroupData>
    <ItemGroupData ItemGroupOID="IG.LB" data:ItemGroupDataSeq="118">
      <ItemData ItemOID="IT.LB.STUDYID" Value="CDISCPILOT01"/>
      <ItemData ItemOID="IT.LB.DOMAIN" Value="LB"/>
      <ItemData ItemOID="IT.LB.USUBJID" Value="CDISC002"/>
      <ItemData ItemOID="IT.LB.LBSEQ" Value="158"/>
      <ItemData ItemOID="IT.LB.LBTESTCD" Value="PLAT"/>
      <ItemData ItemOID="IT.LB.LBTEST" Value="Platelets"/>
      <ItemData ItemOID="IT.LB.LBCAT" Value="HEMATOLOGY"/>
      <ItemData ItemOID="IT.LB.LBORRES" Value="369"/>
      <ItemData ItemOID="IT.LB.LBORRESU" Value="10^9/L"/>
      <ItemData ItemOID="IT.LB.LBORNRLO" Value="130"/>
      <ItemData ItemOID="IT.LB.LBORNRHI" Value="394"/>
      <ItemData ItemOID="IT.LB.LBSTRESC" Value="369"/>
      <ItemData ItemOID="IT.LB.LBSTRESN" Value="369"/>
      <ItemData ItemOID="IT.LB.LBSTRESU" Value="10^9/L"/>
      <ItemData ItemOID="IT.LB.LBSTNRLO" Value="130"/>
      <ItemData ItemOID="IT.LB.LBSTNRHI" Value="394"/>
      <ItemData ItemOID="IT.LB.LBNRIND" Value="NORMAL"/>
      <ItemData ItemOID="IT.LB.VISITNUM" Value="8"/>
      <ItemData ItemOID="IT.LB.VISIT" Value="WEEK 8"/>
      <ItemData ItemOID="IT.LB.EPOCH" Value="TREATMENT"/>
      <ItemData ItemOID="IT.LB.LBDTC" Value="2013-01-08T12:13"/>
      <ItemData ItemOID="IT.LB.LBDY" Value="55"/>
    </ItemGroupData>
    <ItemGroupData ItemGroupOID="IG.LB" data:ItemGroupDataSeq="119">
      <ItemData ItemOID="IT.LB.STUDYID" Value="CDISCPILOT01"/>
      <ItemData ItemOID="IT.LB.DOMAIN" Value="LB"/>
      <ItemData ItemOID="IT.LB.USUBJID" Value="CDISC002"/>
      <ItemData ItemOID="IT.LB.LBSEQ" Value="160"/>
      <ItemData ItemOID="IT.LB.LBTESTCD" Value="RBC"/>
      <ItemData ItemOID="IT.LB.LBTEST" Value="Erythrocytes"/>
      <ItemData ItemOID="IT.LB.LBCAT" Value="HEMATOLOGY"/>
      <ItemData ItemOID="IT.LB.LBORRES" Value="4.50"/>
      <ItemData ItemOID="IT.LB.LBORRESU" Value="10^12/L"/>
      <ItemData ItemOID="IT.LB.LBORNRLO" Value="3.9"/>
      <ItemData ItemOID="IT.LB.LBORNRHI" Value="5.5"/>
      <ItemData ItemOID="IT.LB.LBSTRESC" Value="4.5"/>
      <ItemData ItemOID="IT.LB.LBSTRESN" Value="4.5"/>
      <ItemData ItemOID="IT.LB.LBSTRESU" Value="10^12/L"/>
      <ItemData ItemOID="IT.LB.LBSTNRLO" Value="3.9"/>
      <ItemData ItemOID="IT.LB.LBSTNRHI" Value="5.5"/>
      <ItemData ItemOID="IT.LB.LBNRIND" Value="NORMAL"/>
      <ItemData ItemOID="IT.LB.VISITNUM" Value="8"/>
      <ItemData ItemOID="IT.LB.VISIT" Value="WEEK 8"/>
      <ItemData ItemOID="IT.LB.EPOCH" Value="TREATMENT"/>
      <ItemData ItemOID="IT.LB.LBDTC" Value="2013-01-08T12:13"/>
      <ItemData ItemOID="IT.LB.LBDY" Value="55"/>
    </ItemGroupData>
    <ItemGroupData ItemGroupOID="IG.LB" data:ItemGroupDataSeq="120">
      <ItemData ItemOID="IT.LB.STUDYID" Value="CDISCPILOT01"/>
      <ItemData ItemOID="IT.LB.DOMAIN" Value="LB"/>
      <ItemData ItemOID="IT.LB.USUBJID" Value="CDISC002"/>
      <ItemData ItemOID="IT.LB.LBSEQ" Value="162"/>
      <ItemData ItemOID="IT.LB.LBTESTCD" Value="WBC"/>
      <ItemData ItemOID="IT.LB.LBTEST" Value="Leukocytes"/>
      <ItemData ItemOID="IT.LB.LBCAT" Value="HEMATOLOGY"/>
      <ItemData ItemOID="IT.LB.LBORRES" Value="8.29"/>
      <ItemData ItemOID="IT.LB.LBORRESU" Value="10^9/L"/>
      <ItemData ItemOID="IT.LB.LBORNRLO" Value="3.8"/>
      <ItemData ItemOID="IT.LB.LBORNRHI" Value="10.7"/>
      <ItemData ItemOID="IT.LB.LBSTRESC" Value="8.29"/>
      <ItemData ItemOID="IT.LB.LBSTRESN" Value="8.29"/>
      <ItemData ItemOID="IT.LB.LBSTRESU" Value="10^9/L"/>
      <ItemData ItemOID="IT.LB.LBSTNRLO" Value="3.8"/>
      <ItemData ItemOID="IT.LB.LBSTNRHI" Value="10.7"/>
      <ItemData ItemOID="IT.LB.LBNRIND" Value="NORMAL"/>
      <ItemData ItemOID="IT.LB.VISITNUM" Value="8"/>
      <ItemData ItemOID="IT.LB.VISIT" Value="WEEK 8"/>
      <ItemData ItemOID="IT.LB.EPOCH" Value="TREATMENT"/>
      <ItemData ItemOID="IT.LB.LBDTC" Value="2013-01-08T12:13"/>
      <ItemData ItemOID="IT.LB.LBDY" Value="55"/>
    </ItemGroupData>
    <ItemGroupData ItemGroupOID="IG.LB" data:ItemGroupDataSeq="121">
      <ItemData ItemOID="IT.LB.STUDYID" Value="CDISCPILOT01"/>
      <ItemData ItemOID="IT.LB.DOMAIN" Value="LB"/>
      <ItemData ItemOID="IT.LB.USUBJID" Value="CDISC003"/>
      <ItemData ItemOID="IT.LB.LBSEQ" Value="5"/>
      <ItemData ItemOID="IT.LB.LBTESTCD" Value="BASO"/>
      <ItemData ItemOID="IT.LB.LBTEST" Value="Basophils"/>
      <ItemData ItemOID="IT.LB.LBCAT" Value="HEMATOLOGY"/>
      <ItemData ItemOID="IT.LB.LBORRES" Value="0.07"/>
      <ItemData ItemOID="IT.LB.LBORRESU" Value="10^9/L"/>
      <ItemData ItemOID="IT.LB.LBORNRLO" Value="0"/>
      <ItemData ItemOID="IT.LB.LBORNRHI" Value="0.2"/>
      <ItemData ItemOID="IT.LB.LBSTRESC" Value="0.07"/>
      <ItemData ItemOID="IT.LB.LBSTRESN" Value="0.07"/>
      <ItemData ItemOID="IT.LB.LBSTRESU" Value="10^9/L"/>
      <ItemData ItemOID="IT.LB.LBSTNRLO" Value="0"/>
      <ItemData ItemOID="IT.LB.LBSTNRHI" Value="0.2"/>
      <ItemData ItemOID="IT.LB.LBNRIND" Value="NORMAL"/>
      <ItemData ItemOID="IT.LB.LBLOBXFL" Value="Y"/>
      <ItemData ItemOID="IT.LB.VISITNUM" Value="1"/>
      <ItemData ItemOID="IT.LB.VISIT" Value="SCREENING 1"/>
      <ItemData ItemOID="IT.LB.EPOCH" Value="SCREENING"/>
      <ItemData ItemOID="IT.LB.LBDTC" Value="2013-08-20T12:27"/>
      <ItemData ItemOID="IT.LB.LBDY" Value="-9"/>
    </ItemGroupData>
    <ItemGroupData ItemGroupOID="IG.LB" data:ItemGroupDataSeq="122">
      <ItemData ItemOID="IT.LB.STUDYID" Value="CDISCPILOT01"/>
      <ItemData ItemOID="IT.LB.DOMAIN" Value="LB"/>
      <ItemData ItemOID="IT.LB.USUBJID" Value="CDISC003"/>
      <ItemData ItemOID="IT.LB.LBSEQ" Value="14"/>
      <ItemData ItemOID="IT.LB.LBTESTCD" Value="EOS"/>
      <ItemData ItemOID="IT.LB.LBTEST" Value="Eosinophils"/>
      <ItemData ItemOID="IT.LB.LBCAT" Value="HEMATOLOGY"/>
      <ItemData ItemOID="IT.LB.LBORRES" Value="0.30"/>
      <ItemData ItemOID="IT.LB.LBORRESU" Value="10^9/L"/>
      <ItemData ItemOID="IT.LB.LBORNRLO" Value="0"/>
      <ItemData ItemOID="IT.LB.LBORNRHI" Value="0.57"/>
      <ItemData ItemOID="IT.LB.LBSTRESC" Value="0.3"/>
      <ItemData ItemOID="IT.LB.LBSTRESN" Value="0.3"/>
      <ItemData ItemOID="IT.LB.LBSTRESU" Value="10^9/L"/>
      <ItemData ItemOID="IT.LB.LBSTNRLO" Value="0"/>
      <ItemData ItemOID="IT.LB.LBSTNRHI" Value="0.57"/>
      <ItemData ItemOID="IT.LB.LBNRIND" Value="NORMAL"/>
      <ItemData ItemOID="IT.LB.LBLOBXFL" Value="Y"/>
      <ItemData ItemOID="IT.LB.VISITNUM" Value="1"/>
      <ItemData ItemOID="IT.LB.VISIT" Value="SCREENING 1"/>
      <ItemData ItemOID="IT.LB.EPOCH" Value="SCREENING"/>
      <ItemData ItemOID="IT.LB.LBDTC" Value="2013-08-20T12:27"/>
      <ItemData ItemOID="IT.LB.LBDY" Value="-9"/>
    </ItemGroupData>
    <ItemGroupData ItemGroupOID="IG.LB" data:ItemGroupDataSeq="123">
      <ItemData ItemOID="IT.LB.STUDYID" Value="CDISCPILOT01"/>
      <ItemData ItemOID="IT.LB.DOMAIN" Value="LB"/>
      <ItemData ItemOID="IT.LB.USUBJID" Value="CDISC003"/>
      <ItemData ItemOID="IT.LB.LBSEQ" Value="17"/>
      <ItemData ItemOID="IT.LB.LBTESTCD" Value="HCT"/>
      <ItemData ItemOID="IT.LB.LBTEST" Value="Hematocrit"/>
      <ItemData ItemOID="IT.LB.LBCAT" Value="HEMATOLOGY"/>
      <ItemData ItemOID="IT.LB.LBORRES" Value="44.0"/>
      <ItemData ItemOID="IT.LB.LBORRESU" Value="%"/>
      <ItemData ItemOID="IT.LB.LBORNRLO" Value="37"/>
      <ItemData ItemOID="IT.LB.LBORNRHI" Value="51"/>
      <ItemData ItemOID="IT.LB.LBSTRESC" Value="0.44"/>
      <ItemData ItemOID="IT.LB.LBSTRESN" Value="0.44"/>
      <ItemData ItemOID="IT.LB.LBSTNRLO" Value="0.37"/>
      <ItemData ItemOID="IT.LB.LBSTNRHI" Value="0.51"/>
      <ItemData ItemOID="IT.LB.LBNRIND" Value="NORMAL"/>
      <ItemData ItemOID="IT.LB.LBLOBXFL" Value="Y"/>
      <ItemData ItemOID="IT.LB.VISITNUM" Value="1"/>
      <ItemData ItemOID="IT.LB.VISIT" Value="SCREENING 1"/>
      <ItemData ItemOID="IT.LB.EPOCH" Value="SCREENING"/>
      <ItemData ItemOID="IT.LB.LBDTC" Value="2013-08-20T12:27"/>
      <ItemData ItemOID="IT.LB.LBDY" Value="-9"/>
    </ItemGroupData>
    <ItemGroupData ItemGroupOID="IG.LB" data:ItemGroupDataSeq="124">
      <ItemData ItemOID="IT.LB.STUDYID" Value="CDISCPILOT01"/>
      <ItemData ItemOID="IT.LB.DOMAIN" Value="LB"/>
      <ItemData ItemOID="IT.LB.USUBJID" Value="CDISC003"/>
      <ItemData ItemOID="IT.LB.LBSEQ" Value="18"/>
      <ItemData ItemOID="IT.LB.LBTESTCD" Value="HGB"/>
      <ItemData ItemOID="IT.LB.LBTEST" Value="Hemoglobin"/>
      <ItemData ItemOID="IT.LB.LBCAT" Value="HEMATOLOGY"/>
      <ItemData ItemOID="IT.LB.LBORRES" Value="14.6"/>
      <ItemData ItemOID="IT.LB.LBORRESU" Value="g/dL"/>
      <ItemData ItemOID="IT.LB.LBORNRLO" Value="12.5"/>
      <ItemData ItemOID="IT.LB.LBORNRHI" Value="17"/>
      <ItemData ItemOID="IT.LB.LBSTRESC" Value="9.06076"/>
      <ItemData ItemOID="IT.LB.LBSTRESN" Value="9.06076"/>
      <ItemData ItemOID="IT.LB.LBSTRESU" Value="mmol/L"/>
      <ItemData ItemOID="IT.LB.LBSTNRLO" Value="7.76"/>
      <ItemData ItemOID="IT.LB.LBSTNRHI" Value="10.55"/>
      <ItemData ItemOID="IT.LB.LBNRIND" Value="NORMAL"/>
      <ItemData ItemOID="IT.LB.LBLOBXFL" Value="Y"/>
      <ItemData ItemOID="IT.LB.VISITNUM" Value="1"/>
      <ItemData ItemOID="IT.LB.VISIT" Value="SCREENING 1"/>
      <ItemData ItemOID="IT.LB.EPOCH" Value="SCREENING"/>
      <ItemData ItemOID="IT.LB.LBDTC" Value="2013-08-20T12:27"/>
      <ItemData ItemOID="IT.LB.LBDY" Value="-9"/>
    </ItemGroupData>
    <ItemGroupData ItemGroupOID="IG.LB" data:ItemGroupDataSeq="125">
      <ItemData ItemOID="IT.LB.STUDYID" Value="CDISCPILOT01"/>
      <ItemData ItemOID="IT.LB.DOMAIN" Value="LB"/>
      <ItemData ItemOID="IT.LB.USUBJID" Value="CDISC003"/>
      <ItemData ItemOID="IT.LB.LBSEQ" Value="21"/>
      <ItemData ItemOID="IT.LB.LBTESTCD" Value="LYM"/>
      <ItemData ItemOID="IT.LB.LBTEST" Value="Lymphocytes"/>
      <ItemData ItemOID="IT.LB.LBCAT" Value="HEMATOLOGY"/>
      <ItemData ItemOID="IT.LB.LBORRES" Value="1.48"/>
      <ItemData ItemOID="IT.LB.LBORRESU" Value="10^9/L"/>
      <ItemData ItemOID="IT.LB.LBORNRLO" Value="0.8"/>
      <ItemData ItemOID="IT.LB.LBORNRHI" Value="3"/>
      <ItemData ItemOID="IT.LB.LBSTRESC" Value="1.48"/>
      <ItemData ItemOID="IT.LB.LBSTRESN" Value="1.48"/>
      <ItemData ItemOID="IT.LB.LBSTRESU" Value="10^9/L"/>
      <ItemData ItemOID="IT.LB.LBSTNRLO" Value="0.8"/>
      <ItemData ItemOID="IT.LB.LBSTNRHI" Value="3"/>
      <ItemData ItemOID="IT.LB.LBNRIND" Value="NORMAL"/>
      <ItemData ItemOID="IT.LB.LBLOBXFL" Value="Y"/>
      <ItemData ItemOID="IT.LB.VISITNUM" Value="1"/>
      <ItemData ItemOID="IT.LB.VISIT" Value="SCREENING 1"/>
      <ItemData ItemOID="IT.LB.EPOCH" Value="SCREENING"/>
      <ItemData ItemOID="IT.LB.LBDTC" Value="2013-08-20T12:27"/>
      <ItemData ItemOID="IT.LB.LBDY" Value="-9"/>
    </ItemGroupData>
    <ItemGroupData ItemGroupOID="IG.LB" data:ItemGroupDataSeq="126">
      <ItemData ItemOID="IT.LB.STUDYID" Value="CDISCPILOT01"/>
      <ItemData ItemOID="IT.LB.DOMAIN" Value="LB"/>
      <ItemData ItemOID="IT.LB.USUBJID" Value="CDISC003"/>
      <ItemData ItemOID="IT.LB.LBSEQ" Value="22"/>
      <ItemData ItemOID="IT.LB.LBTESTCD" Value="MCH"/>
      <ItemData ItemOID="IT.LB.LBTEST" Value="Ery. Mean Corpuscular Hemoglobin"/>
      <ItemData ItemOID="IT.LB.LBCAT" Value="HEMATOLOGY"/>
      <ItemData ItemOID="IT.LB.LBORRES" Value="31"/>
      <ItemData ItemOID="IT.LB.LBORRESU" Value="pg"/>
      <ItemData ItemOID="IT.LB.LBORNRLO" Value="26"/>
      <ItemData ItemOID="IT.LB.LBORNRHI" Value="34"/>
      <ItemData ItemOID="IT.LB.LBSTRESC" Value="1.92386"/>
      <ItemData ItemOID="IT.LB.LBSTRESN" Value="1.92386"/>
      <ItemData ItemOID="IT.LB.LBSTRESU" Value="fmol"/>
      <ItemData ItemOID="IT.LB.LBSTNRLO" Value="1.6"/>
      <ItemData ItemOID="IT.LB.LBSTNRHI" Value="2.1"/>
      <ItemData ItemOID="IT.LB.LBNRIND" Value="NORMAL"/>
      <ItemData ItemOID="IT.LB.LBLOBXFL" Value="Y"/>
      <ItemData ItemOID="IT.LB.VISITNUM" Value="1"/>
      <ItemData ItemOID="IT.LB.VISIT" Value="SCREENING 1"/>
      <ItemData ItemOID="IT.LB.EPOCH" Value="SCREENING"/>
      <ItemData ItemOID="IT.LB.LBDTC" Value="2013-08-20T12:27"/>
      <ItemData ItemOID="IT.LB.LBDY" Value="-9"/>
    </ItemGroupData>
    <ItemGroupData ItemGroupOID="IG.LB" data:ItemGroupDataSeq="127">
      <ItemData ItemOID="IT.LB.STUDYID" Value="CDISCPILOT01"/>
      <ItemData ItemOID="IT.LB.DOMAIN" Value="LB"/>
      <ItemData ItemOID="IT.LB.USUBJID" Value="CDISC003"/>
      <ItemData ItemOID="IT.LB.LBSEQ" Value="23"/>
      <ItemData ItemOID="IT.LB.LBTESTCD" Value="MCHC"/>
      <ItemData ItemOID="IT.LB.LBTEST" Value="Ery. Mean Corpuscular HGB Concentration"/>
      <ItemData ItemOID="IT.LB.LBCAT" Value="HEMATOLOGY"/>
      <ItemData ItemOID="IT.LB.LBORRES" Value="33"/>
      <ItemData ItemOID="IT.LB.LBORRESU" Value="g/dL"/>
      <ItemData ItemOID="IT.LB.LBORNRLO" Value="31"/>
      <ItemData ItemOID="IT.LB.LBORNRHI" Value="38"/>
      <ItemData ItemOID="IT.LB.LBSTRESC" Value="20.4798"/>
      <ItemData ItemOID="IT.LB.LBSTRESN" Value="20.4798"/>
      <ItemData ItemOID="IT.LB.LBSTRESU" Value="mmol/L"/>
      <ItemData ItemOID="IT.LB.LBSTNRLO" Value="19"/>
      <ItemData ItemOID="IT.LB.LBSTNRHI" Value="24"/>
      <ItemData ItemOID="IT.LB.LBNRIND" Value="NORMAL"/>
      <ItemData ItemOID="IT.LB.LBLOBXFL" Value="Y"/>
      <ItemData ItemOID="IT.LB.VISITNUM" Value="1"/>
      <ItemData ItemOID="IT.LB.VISIT" Value="SCREENING 1"/>
      <ItemData ItemOID="IT.LB.EPOCH" Value="SCREENING"/>
      <ItemData ItemOID="IT.LB.LBDTC" Value="2013-08-20T12:27"/>
      <ItemData ItemOID="IT.LB.LBDY" Value="-9"/>
    </ItemGroupData>
    <ItemGroupData ItemGroupOID="IG.LB" data:ItemGroupDataSeq="128">
      <ItemData ItemOID="IT.LB.STUDYID" Value="CDISCPILOT01"/>
      <ItemData ItemOID="IT.LB.DOMAIN" Value="LB"/>
      <ItemData ItemOID="IT.LB.USUBJID" Value="CDISC003"/>
      <ItemData ItemOID="IT.LB.LBSEQ" Value="24"/>
      <ItemData ItemOID="IT.LB.LBTESTCD" Value="MCV"/>
      <ItemData ItemOID="IT.LB.LBTEST" Value="Ery. Mean Corpuscular Volume"/>
      <ItemData ItemOID="IT.LB.LBCAT" Value="HEMATOLOGY"/>
      <ItemData ItemOID="IT.LB.LBORRES" Value="92"/>
      <ItemData ItemOID="IT.LB.LBORRESU" Value="fL"/>
      <ItemData ItemOID="IT.LB.LBORNRLO" Value="80"/>
      <ItemData ItemOID="IT.LB.LBORNRHI" Value="100"/>
      <ItemData ItemOID="IT.LB.LBSTRESC" Value="92"/>
      <ItemData ItemOID="IT.LB.LBSTRESN" Value="92"/>
      <ItemData ItemOID="IT.LB.LBSTRESU" Value="fL"/>
      <ItemData ItemOID="IT.LB.LBSTNRLO" Value="80"/>
      <ItemData ItemOID="IT.LB.LBSTNRHI" Value="100"/>
      <ItemData ItemOID="IT.LB.LBNRIND" Value="NORMAL"/>
      <ItemData ItemOID="IT.LB.LBLOBXFL" Value="Y"/>
      <ItemData ItemOID="IT.LB.VISITNUM" Value="1"/>
      <ItemData ItemOID="IT.LB.VISIT" Value="SCREENING 1"/>
      <ItemData ItemOID="IT.LB.EPOCH" Value="SCREENING"/>
      <ItemData ItemOID="IT.LB.LBDTC" Value="2013-08-20T12:27"/>
      <ItemData ItemOID="IT.LB.LBDY" Value="-9"/>
    </ItemGroupData>
    <ItemGroupData ItemGroupOID="IG.LB" data:ItemGroupDataSeq="129">
      <ItemData ItemOID="IT.LB.STUDYID" Value="CDISCPILOT01"/>
      <ItemData ItemOID="IT.LB.DOMAIN" Value="LB"/>
      <ItemData ItemOID="IT.LB.USUBJID" Value="CDISC003"/>
      <ItemData ItemOID="IT.LB.LBSEQ" Value="25"/>
      <ItemData ItemOID="IT.LB.LBTESTCD" Value="MONO"/>
      <ItemData ItemOID="IT.LB.LBTEST" Value="Monocytes"/>
      <ItemData ItemOID="IT.LB.LBCAT" Value="HEMATOLOGY"/>
      <ItemData ItemOID="IT.LB.LBORRES" Value="0.45"/>
      <ItemData ItemOID="IT.LB.LBORRESU" Value="10^9/L"/>
      <ItemData ItemOID="IT.LB.LBORNRLO" Value="0.12"/>
      <ItemData ItemOID="IT.LB.LBORNRHI" Value="0.92"/>
      <ItemData ItemOID="IT.LB.LBSTRESC" Value="0.45"/>
      <ItemData ItemOID="IT.LB.LBSTRESN" Value="0.45"/>
      <ItemData ItemOID="IT.LB.LBSTRESU" Value="10^9/L"/>
      <ItemData ItemOID="IT.LB.LBSTNRLO" Value="0.12"/>
      <ItemData ItemOID="IT.LB.LBSTNRHI" Value="0.92"/>
      <ItemData ItemOID="IT.LB.LBNRIND" Value="NORMAL"/>
      <ItemData ItemOID="IT.LB.LBLOBXFL" Value="Y"/>
      <ItemData ItemOID="IT.LB.VISITNUM" Value="1"/>
      <ItemData ItemOID="IT.LB.VISIT" Value="SCREENING 1"/>
      <ItemData ItemOID="IT.LB.EPOCH" Value="SCREENING"/>
      <ItemData ItemOID="IT.LB.LBDTC" Value="2013-08-20T12:27"/>
      <ItemData ItemOID="IT.LB.LBDY" Value="-9"/>
    </ItemGroupData>
    <ItemGroupData ItemGroupOID="IG.LB" data:ItemGroupDataSeq="130">
      <ItemData ItemOID="IT.LB.STUDYID" Value="CDISCPILOT01"/>
      <ItemData ItemOID="IT.LB.DOMAIN" Value="LB"/>
      <ItemData ItemOID="IT.LB.USUBJID" Value="CDISC003"/>
      <ItemData ItemOID="IT.LB.LBSEQ" Value="29"/>
      <ItemData ItemOID="IT.LB.LBTESTCD" Value="PLAT"/>
      <ItemData ItemOID="IT.LB.LBTEST" Value="Platelets"/>
      <ItemData ItemOID="IT.LB.LBCAT" Value="HEMATOLOGY"/>
      <ItemData ItemOID="IT.LB.LBORRES" Value="220"/>
      <ItemData ItemOID="IT.LB.LBORRESU" Value="10^9/L"/>
      <ItemData ItemOID="IT.LB.LBORNRLO" Value="130"/>
      <ItemData ItemOID="IT.LB.LBORNRHI" Value="394"/>
      <ItemData ItemOID="IT.LB.LBSTRESC" Value="220"/>
      <ItemData ItemOID="IT.LB.LBSTRESN" Value="220"/>
      <ItemData ItemOID="IT.LB.LBSTRESU" Value="10^9/L"/>
      <ItemData ItemOID="IT.LB.LBSTNRLO" Value="130"/>
      <ItemData ItemOID="IT.LB.LBSTNRHI" Value="394"/>
      <ItemData ItemOID="IT.LB.LBNRIND" Value="NORMAL"/>
      <ItemData ItemOID="IT.LB.LBLOBXFL" Value="Y"/>
      <ItemData ItemOID="IT.LB.VISITNUM" Value="1"/>
      <ItemData ItemOID="IT.LB.VISIT" Value="SCREENING 1"/>
      <ItemData ItemOID="IT.LB.EPOCH" Value="SCREENING"/>
      <ItemData ItemOID="IT.LB.LBDTC" Value="2013-08-20T12:27"/>
      <ItemData ItemOID="IT.LB.LBDY" Value="-9"/>
    </ItemGroupData>
    <ItemGroupData ItemGroupOID="IG.LB" data:ItemGroupDataSeq="131">
      <ItemData ItemOID="IT.LB.STUDYID" Value="CDISCPILOT01"/>
      <ItemData ItemOID="IT.LB.DOMAIN" Value="LB"/>
      <ItemData ItemOID="IT.LB.USUBJID" Value="CDISC003"/>
      <ItemData ItemOID="IT.LB.LBSEQ" Value="31"/>
      <ItemData ItemOID="IT.LB.LBTESTCD" Value="RBC"/>
      <ItemData ItemOID="IT.LB.LBTEST" Value="Erythrocytes"/>
      <ItemData ItemOID="IT.LB.LBCAT" Value="HEMATOLOGY"/>
      <ItemData ItemOID="IT.LB.LBORRES" Value="4.80"/>
      <ItemData ItemOID="IT.LB.LBORRESU" Value="10^12/L"/>
      <ItemData ItemOID="IT.LB.LBORNRLO" Value="4"/>
      <ItemData ItemOID="IT.LB.LBORNRHI" Value="5.8"/>
      <ItemData ItemOID="IT.LB.LBSTRESC" Value="4.8"/>
      <ItemData ItemOID="IT.LB.LBSTRESN" Value="4.8"/>
      <ItemData ItemOID="IT.LB.LBSTRESU" Value="10^12/L"/>
      <ItemData ItemOID="IT.LB.LBSTNRLO" Value="4"/>
      <ItemData ItemOID="IT.LB.LBSTNRHI" Value="5.8"/>
      <ItemData ItemOID="IT.LB.LBNRIND" Value="NORMAL"/>
      <ItemData ItemOID="IT.LB.LBLOBXFL" Value="Y"/>
      <ItemData ItemOID="IT.LB.VISITNUM" Value="1"/>
      <ItemData ItemOID="IT.LB.VISIT" Value="SCREENING 1"/>
      <ItemData ItemOID="IT.LB.EPOCH" Value="SCREENING"/>
      <ItemData ItemOID="IT.LB.LBDTC" Value="2013-08-20T12:27"/>
      <ItemData ItemOID="IT.LB.LBDY" Value="-9"/>
    </ItemGroupData>
    <ItemGroupData ItemGroupOID="IG.LB" data:ItemGroupDataSeq="132">
      <ItemData ItemOID="IT.LB.STUDYID" Value="CDISCPILOT01"/>
      <ItemData ItemOID="IT.LB.DOMAIN" Value="LB"/>
      <ItemData ItemOID="IT.LB.USUBJID" Value="CDISC003"/>
      <ItemData ItemOID="IT.LB.LBSEQ" Value="37"/>
      <ItemData ItemOID="IT.LB.LBTESTCD" Value="WBC"/>
      <ItemData ItemOID="IT.LB.LBTEST" Value="Leukocytes"/>
      <ItemData ItemOID="IT.LB.LBCAT" Value="HEMATOLOGY"/>
      <ItemData ItemOID="IT.LB.LBORRES" Value="4.87"/>
      <ItemData ItemOID="IT.LB.LBORRESU" Value="10^9/L"/>
      <ItemData ItemOID="IT.LB.LBORNRLO" Value="3.8"/>
      <ItemData ItemOID="IT.LB.LBORNRHI" Value="10.7"/>
      <ItemData ItemOID="IT.LB.LBSTRESC" Value="4.87"/>
      <ItemData ItemOID="IT.LB.LBSTRESN" Value="4.87"/>
      <ItemData ItemOID="IT.LB.LBSTRESU" Value="10^9/L"/>
      <ItemData ItemOID="IT.LB.LBSTNRLO" Value="3.8"/>
      <ItemData ItemOID="IT.LB.LBSTNRHI" Value="10.7"/>
      <ItemData ItemOID="IT.LB.LBNRIND" Value="NORMAL"/>
      <ItemData ItemOID="IT.LB.LBLOBXFL" Value="Y"/>
      <ItemData ItemOID="IT.LB.VISITNUM" Value="1"/>
      <ItemData ItemOID="IT.LB.VISIT" Value="SCREENING 1"/>
      <ItemData ItemOID="IT.LB.EPOCH" Value="SCREENING"/>
      <ItemData ItemOID="IT.LB.LBDTC" Value="2013-08-20T12:27"/>
      <ItemData ItemOID="IT.LB.LBDY" Value="-9"/>
    </ItemGroupData>
    <ItemGroupData ItemGroupOID="IG.LB" data:ItemGroupDataSeq="133">
      <ItemData ItemOID="IT.LB.STUDYID" Value="CDISCPILOT01"/>
      <ItemData ItemOID="IT.LB.DOMAIN" Value="LB"/>
      <ItemData ItemOID="IT.LB.USUBJID" Value="CDISC003"/>
      <ItemData ItemOID="IT.LB.LBSEQ" Value="42"/>
      <ItemData ItemOID="IT.LB.LBTESTCD" Value="BASO"/>
      <ItemData ItemOID="IT.LB.LBTEST" Value="Basophils"/>
      <ItemData ItemOID="IT.LB.LBCAT" Value="HEMATOLOGY"/>
      <ItemData ItemOID="IT.LB.LBORRES" Value="0.05"/>
      <ItemData ItemOID="IT.LB.LBORRESU" Value="10^9/L"/>
      <ItemData ItemOID="IT.LB.LBORNRLO" Value="0"/>
      <ItemData ItemOID="IT.LB.LBORNRHI" Value="0.2"/>
      <ItemData ItemOID="IT.LB.LBSTRESC" Value="0.05"/>
      <ItemData ItemOID="IT.LB.LBSTRESN" Value="0.05"/>
      <ItemData ItemOID="IT.LB.LBSTRESU" Value="10^9/L"/>
      <ItemData ItemOID="IT.LB.LBSTNRLO" Value="0"/>
      <ItemData ItemOID="IT.LB.LBSTNRHI" Value="0.2"/>
      <ItemData ItemOID="IT.LB.LBNRIND" Value="NORMAL"/>
      <ItemData ItemOID="IT.LB.VISITNUM" Value="4"/>
      <ItemData ItemOID="IT.LB.VISIT" Value="WEEK 2"/>
      <ItemData ItemOID="IT.LB.EPOCH" Value="TREATMENT"/>
      <ItemData ItemOID="IT.LB.LBDTC" Value="2013-09-15T12:44"/>
      <ItemData ItemOID="IT.LB.LBDY" Value="18"/>
    </ItemGroupData>
    <ItemGroupData ItemGroupOID="IG.LB" data:ItemGroupDataSeq="134">
      <ItemData ItemOID="IT.LB.STUDYID" Value="CDISCPILOT01"/>
      <ItemData ItemOID="IT.LB.DOMAIN" Value="LB"/>
      <ItemData ItemOID="IT.LB.USUBJID" Value="CDISC003"/>
      <ItemData ItemOID="IT.LB.LBSEQ" Value="51"/>
      <ItemData ItemOID="IT.LB.LBTESTCD" Value="EOS"/>
      <ItemData ItemOID="IT.LB.LBTEST" Value="Eosinophils"/>
      <ItemData ItemOID="IT.LB.LBCAT" Value="HEMATOLOGY"/>
      <ItemData ItemOID="IT.LB.LBORRES" Value="0.19"/>
      <ItemData ItemOID="IT.LB.LBORRESU" Value="10^9/L"/>
      <ItemData ItemOID="IT.LB.LBORNRLO" Value="0"/>
      <ItemData ItemOID="IT.LB.LBORNRHI" Value="0.57"/>
      <ItemData ItemOID="IT.LB.LBSTRESC" Value="0.19"/>
      <ItemData ItemOID="IT.LB.LBSTRESN" Value="0.19"/>
      <ItemData ItemOID="IT.LB.LBSTRESU" Value="10^9/L"/>
      <ItemData ItemOID="IT.LB.LBSTNRLO" Value="0"/>
      <ItemData ItemOID="IT.LB.LBSTNRHI" Value="0.57"/>
      <ItemData ItemOID="IT.LB.LBNRIND" Value="NORMAL"/>
      <ItemData ItemOID="IT.LB.VISITNUM" Value="4"/>
      <ItemData ItemOID="IT.LB.VISIT" Value="WEEK 2"/>
      <ItemData ItemOID="IT.LB.EPOCH" Value="TREATMENT"/>
      <ItemData ItemOID="IT.LB.LBDTC" Value="2013-09-15T12:44"/>
      <ItemData ItemOID="IT.LB.LBDY" Value="18"/>
    </ItemGroupData>
    <ItemGroupData ItemGroupOID="IG.LB" data:ItemGroupDataSeq="135">
      <ItemData ItemOID="IT.LB.STUDYID" Value="CDISCPILOT01"/>
      <ItemData ItemOID="IT.LB.DOMAIN" Value="LB"/>
      <ItemData ItemOID="IT.LB.USUBJID" Value="CDISC003"/>
      <ItemData ItemOID="IT.LB.LBSEQ" Value="54"/>
      <ItemData ItemOID="IT.LB.LBTESTCD" Value="HCT"/>
      <ItemData ItemOID="IT.LB.LBTEST" Value="Hematocrit"/>
      <ItemData ItemOID="IT.LB.LBCAT" Value="HEMATOLOGY"/>
      <ItemData ItemOID="IT.LB.LBORRES" Value="39.0"/>
      <ItemData ItemOID="IT.LB.LBORRESU" Value="%"/>
      <ItemData ItemOID="IT.LB.LBORNRLO" Value="37"/>
      <ItemData ItemOID="IT.LB.LBORNRHI" Value="51"/>
      <ItemData ItemOID="IT.LB.LBSTRESC" Value="0.39"/>
      <ItemData ItemOID="IT.LB.LBSTRESN" Value="0.39"/>
      <ItemData ItemOID="IT.LB.LBSTNRLO" Value="0.37"/>
      <ItemData ItemOID="IT.LB.LBSTNRHI" Value="0.51"/>
      <ItemData ItemOID="IT.LB.LBNRIND" Value="NORMAL"/>
      <ItemData ItemOID="IT.LB.VISITNUM" Value="4"/>
      <ItemData ItemOID="IT.LB.VISIT" Value="WEEK 2"/>
      <ItemData ItemOID="IT.LB.EPOCH" Value="TREATMENT"/>
      <ItemData ItemOID="IT.LB.LBDTC" Value="2013-09-15T12:44"/>
      <ItemData ItemOID="IT.LB.LBDY" Value="18"/>
    </ItemGroupData>
    <ItemGroupData ItemGroupOID="IG.LB" data:ItemGroupDataSeq="136">
      <ItemData ItemOID="IT.LB.STUDYID" Value="CDISCPILOT01"/>
      <ItemData ItemOID="IT.LB.DOMAIN" Value="LB"/>
      <ItemData ItemOID="IT.LB.USUBJID" Value="CDISC003"/>
      <ItemData ItemOID="IT.LB.LBSEQ" Value="55"/>
      <ItemData ItemOID="IT.LB.LBTESTCD" Value="HGB"/>
      <ItemData ItemOID="IT.LB.LBTEST" Value="Hemoglobin"/>
      <ItemData ItemOID="IT.LB.LBCAT" Value="HEMATOLOGY"/>
      <ItemData ItemOID="IT.LB.LBORRES" Value="13.2"/>
      <ItemData ItemOID="IT.LB.LBORRESU" Value="g/dL"/>
      <ItemData ItemOID="IT.LB.LBORNRLO" Value="12.5"/>
      <ItemData ItemOID="IT.LB.LBORNRHI" Value="17"/>
      <ItemData ItemOID="IT.LB.LBSTRESC" Value="8.19192"/>
      <ItemData ItemOID="IT.LB.LBSTRESN" Value="8.19192"/>
      <ItemData ItemOID="IT.LB.LBSTRESU" Value="mmol/L"/>
      <ItemData ItemOID="IT.LB.LBSTNRLO" Value="7.76"/>
      <ItemData ItemOID="IT.LB.LBSTNRHI" Value="10.55"/>
      <ItemData ItemOID="IT.LB.LBNRIND" Value="NORMAL"/>
      <ItemData ItemOID="IT.LB.VISITNUM" Value="4"/>
      <ItemData ItemOID="IT.LB.VISIT" Value="WEEK 2"/>
      <ItemData ItemOID="IT.LB.EPOCH" Value="TREATMENT"/>
      <ItemData ItemOID="IT.LB.LBDTC" Value="2013-09-15T12:44"/>
      <ItemData ItemOID="IT.LB.LBDY" Value="18"/>
    </ItemGroupData>
    <ItemGroupData ItemGroupOID="IG.LB" data:ItemGroupDataSeq="137">
      <ItemData ItemOID="IT.LB.STUDYID" Value="CDISCPILOT01"/>
      <ItemData ItemOID="IT.LB.DOMAIN" Value="LB"/>
      <ItemData ItemOID="IT.LB.USUBJID" Value="CDISC003"/>
      <ItemData ItemOID="IT.LB.LBSEQ" Value="58"/>
      <ItemData ItemOID="IT.LB.LBTESTCD" Value="LYM"/>
      <ItemData ItemOID="IT.LB.LBTEST" Value="Lymphocytes"/>
      <ItemData ItemOID="IT.LB.LBCAT" Value="HEMATOLOGY"/>
      <ItemData ItemOID="IT.LB.LBORRES" Value="1.31"/>
      <ItemData ItemOID="IT.LB.LBORRESU" Value="10^9/L"/>
      <ItemData ItemOID="IT.LB.LBORNRLO" Value="0.8"/>
      <ItemData ItemOID="IT.LB.LBORNRHI" Value="3"/>
      <ItemData ItemOID="IT.LB.LBSTRESC" Value="1.31"/>
      <ItemData ItemOID="IT.LB.LBSTRESN" Value="1.31"/>
      <ItemData ItemOID="IT.LB.LBSTRESU" Value="10^9/L"/>
      <ItemData ItemOID="IT.LB.LBSTNRLO" Value="0.8"/>
      <ItemData ItemOID="IT.LB.LBSTNRHI" Value="3"/>
      <ItemData ItemOID="IT.LB.LBNRIND" Value="NORMAL"/>
      <ItemData ItemOID="IT.LB.VISITNUM" Value="4"/>
      <ItemData ItemOID="IT.LB.VISIT" Value="WEEK 2"/>
      <ItemData ItemOID="IT.LB.EPOCH" Value="TREATMENT"/>
      <ItemData ItemOID="IT.LB.LBDTC" Value="2013-09-15T12:44"/>
      <ItemData ItemOID="IT.LB.LBDY" Value="18"/>
    </ItemGroupData>
    <ItemGroupData ItemGroupOID="IG.LB" data:ItemGroupDataSeq="138">
      <ItemData ItemOID="IT.LB.STUDYID" Value="CDISCPILOT01"/>
      <ItemData ItemOID="IT.LB.DOMAIN" Value="LB"/>
      <ItemData ItemOID="IT.LB.USUBJID" Value="CDISC003"/>
      <ItemData ItemOID="IT.LB.LBSEQ" Value="59"/>
      <ItemData ItemOID="IT.LB.LBTESTCD" Value="MCH"/>
      <ItemData ItemOID="IT.LB.LBTEST" Value="Ery. Mean Corpuscular Hemoglobin"/>
      <ItemData ItemOID="IT.LB.LBCAT" Value="HEMATOLOGY"/>
      <ItemData ItemOID="IT.LB.LBORRES" Value="32"/>
      <ItemData ItemOID="IT.LB.LBORRESU" Value="pg"/>
      <ItemData ItemOID="IT.LB.LBORNRLO" Value="26"/>
      <ItemData ItemOID="IT.LB.LBORNRHI" Value="34"/>
      <ItemData ItemOID="IT.LB.LBSTRESC" Value="1.98592"/>
      <ItemData ItemOID="IT.LB.LBSTRESN" Value="1.98592"/>
      <ItemData ItemOID="IT.LB.LBSTRESU" Value="fmol"/>
      <ItemData ItemOID="IT.LB.LBSTNRLO" Value="1.6"/>
      <ItemData ItemOID="IT.LB.LBSTNRHI" Value="2.1"/>
      <ItemData ItemOID="IT.LB.LBNRIND" Value="NORMAL"/>
      <ItemData ItemOID="IT.LB.VISITNUM" Value="4"/>
      <ItemData ItemOID="IT.LB.VISIT" Value="WEEK 2"/>
      <ItemData ItemOID="IT.LB.EPOCH" Value="TREATMENT"/>
      <ItemData ItemOID="IT.LB.LBDTC" Value="2013-09-15T12:44"/>
      <ItemData ItemOID="IT.LB.LBDY" Value="18"/>
    </ItemGroupData>
    <ItemGroupData ItemGroupOID="IG.LB" data:ItemGroupDataSeq="139">
      <ItemData ItemOID="IT.LB.STUDYID" Value="CDISCPILOT01"/>
      <ItemData ItemOID="IT.LB.DOMAIN" Value="LB"/>
      <ItemData ItemOID="IT.LB.USUBJID" Value="CDISC003"/>
      <ItemData ItemOID="IT.LB.LBSEQ" Value="60"/>
      <ItemData ItemOID="IT.LB.LBTESTCD" Value="MCHC"/>
      <ItemData ItemOID="IT.LB.LBTEST" Value="Ery. Mean Corpuscular HGB Concentration"/>
      <ItemData ItemOID="IT.LB.LBCAT" Value="HEMATOLOGY"/>
      <ItemData ItemOID="IT.LB.LBORRES" Value="34"/>
      <ItemData ItemOID="IT.LB.LBORRESU" Value="g/dL"/>
      <ItemData ItemOID="IT.LB.LBORNRLO" Value="31"/>
      <ItemData ItemOID="IT.LB.LBORNRHI" Value="38"/>
      <ItemData ItemOID="IT.LB.LBSTRESC" Value="21.1004"/>
      <ItemData ItemOID="IT.LB.LBSTRESN" Value="21.1004"/>
      <ItemData ItemOID="IT.LB.LBSTRESU" Value="mmol/L"/>
      <ItemData ItemOID="IT.LB.LBSTNRLO" Value="19"/>
      <ItemData ItemOID="IT.LB.LBSTNRHI" Value="24"/>
      <ItemData ItemOID="IT.LB.LBNRIND" Value="NORMAL"/>
      <ItemData ItemOID="IT.LB.VISITNUM" Value="4"/>
      <ItemData ItemOID="IT.LB.VISIT" Value="WEEK 2"/>
      <ItemData ItemOID="IT.LB.EPOCH" Value="TREATMENT"/>
      <ItemData ItemOID="IT.LB.LBDTC" Value="2013-09-15T12:44"/>
      <ItemData ItemOID="IT.LB.LBDY" Value="18"/>
    </ItemGroupData>
    <ItemGroupData ItemGroupOID="IG.LB" data:ItemGroupDataSeq="140">
      <ItemData ItemOID="IT.LB.STUDYID" Value="CDISCPILOT01"/>
      <ItemData ItemOID="IT.LB.DOMAIN" Value="LB"/>
      <ItemData ItemOID="IT.LB.USUBJID" Value="CDISC003"/>
      <ItemData ItemOID="IT.LB.LBSEQ" Value="61"/>
      <ItemData ItemOID="IT.LB.LBTESTCD" Value="MCV"/>
      <ItemData ItemOID="IT.LB.LBTEST" Value="Ery. Mean Corpuscular Volume"/>
      <ItemData ItemOID="IT.LB.LBCAT" Value="HEMATOLOGY"/>
      <ItemData ItemOID="IT.LB.LBORRES" Value="93"/>
      <ItemData ItemOID="IT.LB.LBORRESU" Value="fL"/>
      <ItemData ItemOID="IT.LB.LBORNRLO" Value="80"/>
      <ItemData ItemOID="IT.LB.LBORNRHI" Value="100"/>
      <ItemData ItemOID="IT.LB.LBSTRESC" Value="93"/>
      <ItemData ItemOID="IT.LB.LBSTRESN" Value="93"/>
      <ItemData ItemOID="IT.LB.LBSTRESU" Value="fL"/>
      <ItemData ItemOID="IT.LB.LBSTNRLO" Value="80"/>
      <ItemData ItemOID="IT.LB.LBSTNRHI" Value="100"/>
      <ItemData ItemOID="IT.LB.LBNRIND" Value="NORMAL"/>
      <ItemData ItemOID="IT.LB.VISITNUM" Value="4"/>
      <ItemData ItemOID="IT.LB.VISIT" Value="WEEK 2"/>
      <ItemData ItemOID="IT.LB.EPOCH" Value="TREATMENT"/>
      <ItemData ItemOID="IT.LB.LBDTC" Value="2013-09-15T12:44"/>
      <ItemData ItemOID="IT.LB.LBDY" Value="18"/>
    </ItemGroupData>
    <ItemGroupData ItemGroupOID="IG.LB" data:ItemGroupDataSeq="141">
      <ItemData ItemOID="IT.LB.STUDYID" Value="CDISCPILOT01"/>
      <ItemData ItemOID="IT.LB.DOMAIN" Value="LB"/>
      <ItemData ItemOID="IT.LB.USUBJID" Value="CDISC003"/>
      <ItemData ItemOID="IT.LB.LBSEQ" Value="62"/>
      <ItemData ItemOID="IT.LB.LBTESTCD" Value="MONO"/>
      <ItemData ItemOID="IT.LB.LBTEST" Value="Monocytes"/>
      <ItemData ItemOID="IT.LB.LBCAT" Value="HEMATOLOGY"/>
      <ItemData ItemOID="IT.LB.LBORRES" Value="0.32"/>
      <ItemData ItemOID="IT.LB.LBORRESU" Value="10^9/L"/>
      <ItemData ItemOID="IT.LB.LBORNRLO" Value="0.12"/>
      <ItemData ItemOID="IT.LB.LBORNRHI" Value="0.92"/>
      <ItemData ItemOID="IT.LB.LBSTRESC" Value="0.32"/>
      <ItemData ItemOID="IT.LB.LBSTRESN" Value="0.32"/>
      <ItemData ItemOID="IT.LB.LBSTRESU" Value="10^9/L"/>
      <ItemData ItemOID="IT.LB.LBSTNRLO" Value="0.12"/>
      <ItemData ItemOID="IT.LB.LBSTNRHI" Value="0.92"/>
      <ItemData ItemOID="IT.LB.LBNRIND" Value="NORMAL"/>
      <ItemData ItemOID="IT.LB.VISITNUM" Value="4"/>
      <ItemData ItemOID="IT.LB.VISIT" Value="WEEK 2"/>
      <ItemData ItemOID="IT.LB.EPOCH" Value="TREATMENT"/>
      <ItemData ItemOID="IT.LB.LBDTC" Value="2013-09-15T12:44"/>
      <ItemData ItemOID="IT.LB.LBDY" Value="18"/>
    </ItemGroupData>
    <ItemGroupData ItemGroupOID="IG.LB" data:ItemGroupDataSeq="142">
      <ItemData ItemOID="IT.LB.STUDYID" Value="CDISCPILOT01"/>
      <ItemData ItemOID="IT.LB.DOMAIN" Value="LB"/>
      <ItemData ItemOID="IT.LB.USUBJID" Value="CDISC003"/>
      <ItemData ItemOID="IT.LB.LBSEQ" Value="66"/>
      <ItemData ItemOID="IT.LB.LBTESTCD" Value="PLAT"/>
      <ItemData ItemOID="IT.LB.LBTEST" Value="Platelets"/>
      <ItemData ItemOID="IT.LB.LBCAT" Value="HEMATOLOGY"/>
      <ItemData ItemOID="IT.LB.LBORRES" Value="230"/>
      <ItemData ItemOID="IT.LB.LBORRESU" Value="10^9/L"/>
      <ItemData ItemOID="IT.LB.LBORNRLO" Value="130"/>
      <ItemData ItemOID="IT.LB.LBORNRHI" Value="394"/>
      <ItemData ItemOID="IT.LB.LBSTRESC" Value="230"/>
      <ItemData ItemOID="IT.LB.LBSTRESN" Value="230"/>
      <ItemData ItemOID="IT.LB.LBSTRESU" Value="10^9/L"/>
      <ItemData ItemOID="IT.LB.LBSTNRLO" Value="130"/>
      <ItemData ItemOID="IT.LB.LBSTNRHI" Value="394"/>
      <ItemData ItemOID="IT.LB.LBNRIND" Value="NORMAL"/>
      <ItemData ItemOID="IT.LB.VISITNUM" Value="4"/>
      <ItemData ItemOID="IT.LB.VISIT" Value="WEEK 2"/>
      <ItemData ItemOID="IT.LB.EPOCH" Value="TREATMENT"/>
      <ItemData ItemOID="IT.LB.LBDTC" Value="2013-09-15T12:44"/>
      <ItemData ItemOID="IT.LB.LBDY" Value="18"/>
    </ItemGroupData>
    <ItemGroupData ItemGroupOID="IG.LB" data:ItemGroupDataSeq="143">
      <ItemData ItemOID="IT.LB.STUDYID" Value="CDISCPILOT01"/>
      <ItemData ItemOID="IT.LB.DOMAIN" Value="LB"/>
      <ItemData ItemOID="IT.LB.USUBJID" Value="CDISC003"/>
      <ItemData ItemOID="IT.LB.LBSEQ" Value="68"/>
      <ItemData ItemOID="IT.LB.LBTESTCD" Value="RBC"/>
      <ItemData ItemOID="IT.LB.LBTEST" Value="Erythrocytes"/>
      <ItemData ItemOID="IT.LB.LBCAT" Value="HEMATOLOGY"/>
      <ItemData ItemOID="IT.LB.LBORRES" Value="4.20"/>
      <ItemData ItemOID="IT.LB.LBORRESU" Value="10^12/L"/>
      <ItemData ItemOID="IT.LB.LBORNRLO" Value="4"/>
      <ItemData ItemOID="IT.LB.LBORNRHI" Value="5.8"/>
      <ItemData ItemOID="IT.LB.LBSTRESC" Value="4.2"/>
      <ItemData ItemOID="IT.LB.LBSTRESN" Value="4.2"/>
      <ItemData ItemOID="IT.LB.LBSTRESU" Value="10^12/L"/>
      <ItemData ItemOID="IT.LB.LBSTNRLO" Value="4"/>
      <ItemData ItemOID="IT.LB.LBSTNRHI" Value="5.8"/>
      <ItemData ItemOID="IT.LB.LBNRIND" Value="NORMAL"/>
      <ItemData ItemOID="IT.LB.VISITNUM" Value="4"/>
      <ItemData ItemOID="IT.LB.VISIT" Value="WEEK 2"/>
      <ItemData ItemOID="IT.LB.EPOCH" Value="TREATMENT"/>
      <ItemData ItemOID="IT.LB.LBDTC" Value="2013-09-15T12:44"/>
      <ItemData ItemOID="IT.LB.LBDY" Value="18"/>
    </ItemGroupData>
    <ItemGroupData ItemGroupOID="IG.LB" data:ItemGroupDataSeq="144">
      <ItemData ItemOID="IT.LB.STUDYID" Value="CDISCPILOT01"/>
      <ItemData ItemOID="IT.LB.DOMAIN" Value="LB"/>
      <ItemData ItemOID="IT.LB.USUBJID" Value="CDISC003"/>
      <ItemData ItemOID="IT.LB.LBSEQ" Value="72"/>
      <ItemData ItemOID="IT.LB.LBTESTCD" Value="WBC"/>
      <ItemData ItemOID="IT.LB.LBTEST" Value="Leukocytes"/>
      <ItemData ItemOID="IT.LB.LBCAT" Value="HEMATOLOGY"/>
      <ItemData ItemOID="IT.LB.LBORRES" Value="4.59"/>
      <ItemData ItemOID="IT.LB.LBORRESU" Value="10^9/L"/>
      <ItemData ItemOID="IT.LB.LBORNRLO" Value="3.8"/>
      <ItemData ItemOID="IT.LB.LBORNRHI" Value="10.7"/>
      <ItemData ItemOID="IT.LB.LBSTRESC" Value="4.59"/>
      <ItemData ItemOID="IT.LB.LBSTRESN" Value="4.59"/>
      <ItemData ItemOID="IT.LB.LBSTRESU" Value="10^9/L"/>
      <ItemData ItemOID="IT.LB.LBSTNRLO" Value="3.8"/>
      <ItemData ItemOID="IT.LB.LBSTNRHI" Value="10.7"/>
      <ItemData ItemOID="IT.LB.LBNRIND" Value="NORMAL"/>
      <ItemData ItemOID="IT.LB.VISITNUM" Value="4"/>
      <ItemData ItemOID="IT.LB.VISIT" Value="WEEK 2"/>
      <ItemData ItemOID="IT.LB.EPOCH" Value="TREATMENT"/>
      <ItemData ItemOID="IT.LB.LBDTC" Value="2013-09-15T12:44"/>
      <ItemData ItemOID="IT.LB.LBDY" Value="18"/>
    </ItemGroupData>
    <ItemGroupData ItemGroupOID="IG.LB" data:ItemGroupDataSeq="145">
      <ItemData ItemOID="IT.LB.STUDYID" Value="CDISCPILOT01"/>
      <ItemData ItemOID="IT.LB.DOMAIN" Value="LB"/>
      <ItemData ItemOID="IT.LB.USUBJID" Value="CDISC003"/>
      <ItemData ItemOID="IT.LB.LBSEQ" Value="77"/>
      <ItemData ItemOID="IT.LB.LBTESTCD" Value="BASO"/>
      <ItemData ItemOID="IT.LB.LBTEST" Value="Basophils"/>
      <ItemData ItemOID="IT.LB.LBCAT" Value="HEMATOLOGY"/>
      <ItemData ItemOID="IT.LB.LBORRES" Value="0.06"/>
      <ItemData ItemOID="IT.LB.LBORRESU" Value="10^9/L"/>
      <ItemData ItemOID="IT.LB.LBORNRLO" Value="0"/>
      <ItemData ItemOID="IT.LB.LBORNRHI" Value="0.2"/>
      <ItemData ItemOID="IT.LB.LBSTRESC" Value="0.06"/>
      <ItemData ItemOID="IT.LB.LBSTRESN" Value="0.06"/>
      <ItemData ItemOID="IT.LB.LBSTRESU" Value="10^9/L"/>
      <ItemData ItemOID="IT.LB.LBSTNRLO" Value="0"/>
      <ItemData ItemOID="IT.LB.LBSTNRHI" Value="0.2"/>
      <ItemData ItemOID="IT.LB.LBNRIND" Value="NORMAL"/>
      <ItemData ItemOID="IT.LB.VISITNUM" Value="5"/>
      <ItemData ItemOID="IT.LB.VISIT" Value="WEEK 4"/>
      <ItemData ItemOID="IT.LB.EPOCH" Value="TREATMENT"/>
      <ItemData ItemOID="IT.LB.LBDTC" Value="2013-09-24T08:16"/>
      <ItemData ItemOID="IT.LB.LBDY" Value="27"/>
    </ItemGroupData>
    <ItemGroupData ItemGroupOID="IG.LB" data:ItemGroupDataSeq="146">
      <ItemData ItemOID="IT.LB.STUDYID" Value="CDISCPILOT01"/>
      <ItemData ItemOID="IT.LB.DOMAIN" Value="LB"/>
      <ItemData ItemOID="IT.LB.USUBJID" Value="CDISC003"/>
      <ItemData ItemOID="IT.LB.LBSEQ" Value="85"/>
      <ItemData ItemOID="IT.LB.LBTESTCD" Value="EOS"/>
      <ItemData ItemOID="IT.LB.LBTEST" Value="Eosinophils"/>
      <ItemData ItemOID="IT.LB.LBCAT" Value="HEMATOLOGY"/>
      <ItemData ItemOID="IT.LB.LBORRES" Value="0.32"/>
      <ItemData ItemOID="IT.LB.LBORRESU" Value="10^9/L"/>
      <ItemData ItemOID="IT.LB.LBORNRLO" Value="0"/>
      <ItemData ItemOID="IT.LB.LBORNRHI" Value="0.57"/>
      <ItemData ItemOID="IT.LB.LBSTRESC" Value="0.32"/>
      <ItemData ItemOID="IT.LB.LBSTRESN" Value="0.32"/>
      <ItemData ItemOID="IT.LB.LBSTRESU" Value="10^9/L"/>
      <ItemData ItemOID="IT.LB.LBSTNRLO" Value="0"/>
