<?xml version="1.0" encoding="UTF-8"?>
<!-- Dataset-XML: Untyped Data Example  --> 
<!-- Built from the SAS XPT files published with the SDTM-MSG (SDTM Metadata Submission Guidelines) V2.0 --> 
<ODM
  xmlns="http://www.cdisc.org/ns/odm/v1.3"
  xmlns:xlink="http://www.w3.org/1999/xlink" 
  xmlns:data="http://www.cdisc.org/ns/Dataset-XML/v1.0"
  FileType="Snapshot"
  ODMVersion="1.3.2"
  data:DatasetXMLVersion="1.0.0"
  FileOID="www.cdisc.org/StudyMSGv2/1/Define-XML_2.1.0(IG.LB).Data(LBUR)"
  PriorFileOID="www.cdisc.org/StudyMSGv2/1/Define-XML_2.1.0"
  CreationDateTime="2020-08-21T09:21:13"
  Originator="CDISC MSG Team"
  SourceSystem="M.Hungria-System"
  SourceSystemVersion="2.1-A1"
  >
  <ClinicalData
    StudyOID="cdisc.com/CDISCPILOT01"
    MetaDataVersionOID="MDV.MSGv2.0.SDTMIG.3.3.SDTM.1.7">
    <!-- Dataset (LBUR) -->
    <ItemGroupData ItemGroupOID="IG.LB" data:ItemGroupDataSeq="1">
      <ItemData ItemOID="IT.LB.STUDYID" Value="CDISCPILOT01"/>
      <ItemData ItemOID="IT.LB.DOMAIN" Value="LB"/>
      <ItemData ItemOID="IT.LB.USUBJID" Value="CDISC001"/>
      <ItemData ItemOID="IT.LB.LBSEQ" Value="12"/>
      <ItemData ItemOID="IT.LB.LBTESTCD" Value="COLOR"/>
      <ItemData ItemOID="IT.LB.LBTEST" Value="Color"/>
      <ItemData ItemOID="IT.LB.LBCAT" Value="URINALYSIS"/>
      <ItemData ItemOID="IT.LB.LBORRES" Value="NORMAL"/>
      <ItemData ItemOID="IT.LB.LBSTRESC" Value="NORMAL"/>
      <ItemData ItemOID="IT.LB.LBNRIND" Value="NORMAL"/>
      <ItemData ItemOID="IT.LB.LBLOBXFL" Value="Y"/>
      <ItemData ItemOID="IT.LB.VISITNUM" Value="1"/>
      <ItemData ItemOID="IT.LB.VISIT" Value="SCREENING 1"/>
      <ItemData ItemOID="IT.LB.EPOCH" Value="SCREENING"/>
      <ItemData ItemOID="IT.LB.LBDTC" Value="2012-11-23T11:20"/>
      <ItemData ItemOID="IT.LB.LBDY" Value="-7"/>
    </ItemGroupData>
    <ItemGroupData ItemGroupOID="IG.LB" data:ItemGroupDataSeq="2">
      <ItemData ItemOID="IT.LB.STUDYID" Value="CDISCPILOT01"/>
      <ItemData ItemOID="IT.LB.DOMAIN" Value="LB"/>
      <ItemData ItemOID="IT.LB.USUBJID" Value="CDISC001"/>
      <ItemData ItemOID="IT.LB.LBSEQ" Value="20"/>
      <ItemData ItemOID="IT.LB.LBTESTCD" Value="KETONES"/>
      <ItemData ItemOID="IT.LB.LBTEST" Value="Ketones"/>
      <ItemData ItemOID="IT.LB.LBCAT" Value="URINALYSIS"/>
      <ItemData ItemOID="IT.LB.LBORRES" Value="0"/>
      <ItemData ItemOID="IT.LB.LBSTRESC" Value="0"/>
      <ItemData ItemOID="IT.LB.LBSTRESN" Value="0"/>
      <ItemData ItemOID="IT.LB.LBNRIND" Value="NORMAL"/>
      <ItemData ItemOID="IT.LB.LBLOBXFL" Value="Y"/>
      <ItemData ItemOID="IT.LB.VISITNUM" Value="1"/>
      <ItemData ItemOID="IT.LB.VISIT" Value="SCREENING 1"/>
      <ItemData ItemOID="IT.LB.EPOCH" Value="SCREENING"/>
      <ItemData ItemOID="IT.LB.LBDTC" Value="2012-11-23T11:20"/>
      <ItemData ItemOID="IT.LB.LBDY" Value="-7"/>
    </ItemGroupData>
    <ItemGroupData ItemGroupOID="IG.LB" data:ItemGroupDataSeq="3">
      <ItemData ItemOID="IT.LB.STUDYID" Value="CDISCPILOT01"/>
      <ItemData ItemOID="IT.LB.DOMAIN" Value="LB"/>
      <ItemData ItemOID="IT.LB.USUBJID" Value="CDISC001"/>
      <ItemData ItemOID="IT.LB.LBSEQ" Value="27"/>
      <ItemData ItemOID="IT.LB.LBTESTCD" Value="PH"/>
      <ItemData ItemOID="IT.LB.LBTEST" Value="pH"/>
      <ItemData ItemOID="IT.LB.LBCAT" Value="URINALYSIS"/>
      <ItemData ItemOID="IT.LB.LBORRES" Value="5"/>
      <ItemData ItemOID="IT.LB.LBORNRLO" Value="5"/>
      <ItemData ItemOID="IT.LB.LBORNRHI" Value="8"/>
      <ItemData ItemOID="IT.LB.LBSTRESC" Value="5"/>
      <ItemData ItemOID="IT.LB.LBSTRESN" Value="5"/>
      <ItemData ItemOID="IT.LB.LBSTNRLO" Value="5"/>
      <ItemData ItemOID="IT.LB.LBSTNRHI" Value="8"/>
      <ItemData ItemOID="IT.LB.LBNRIND" Value="NORMAL"/>
      <ItemData ItemOID="IT.LB.LBLOBXFL" Value="Y"/>
      <ItemData ItemOID="IT.LB.VISITNUM" Value="1"/>
      <ItemData ItemOID="IT.LB.VISIT" Value="SCREENING 1"/>
      <ItemData ItemOID="IT.LB.EPOCH" Value="SCREENING"/>
      <ItemData ItemOID="IT.LB.LBDTC" Value="2012-11-23T11:20"/>
      <ItemData ItemOID="IT.LB.LBDY" Value="-7"/>
    </ItemGroupData>
    <ItemGroupData ItemGroupOID="IG.LB" data:ItemGroupDataSeq="4">
      <ItemData ItemOID="IT.LB.STUDYID" Value="CDISCPILOT01"/>
      <ItemData ItemOID="IT.LB.DOMAIN" Value="LB"/>
      <ItemData ItemOID="IT.LB.USUBJID" Value="CDISC001"/>
      <ItemData ItemOID="IT.LB.LBSEQ" Value="32"/>
      <ItemData ItemOID="IT.LB.LBTESTCD" Value="SPGRAV"/>
      <ItemData ItemOID="IT.LB.LBTEST" Value="Specific Gravity"/>
      <ItemData ItemOID="IT.LB.LBCAT" Value="URINALYSIS"/>
      <ItemData ItemOID="IT.LB.LBORRES" Value="1.017"/>
      <ItemData ItemOID="IT.LB.LBORNRLO" Value="1.006"/>
      <ItemData ItemOID="IT.LB.LBORNRHI" Value="1.03"/>
      <ItemData ItemOID="IT.LB.LBSTRESC" Value="1.017"/>
      <ItemData ItemOID="IT.LB.LBSTRESN" Value="1.017"/>
      <ItemData ItemOID="IT.LB.LBSTNRLO" Value="1.006"/>
      <ItemData ItemOID="IT.LB.LBSTNRHI" Value="1.03"/>
      <ItemData ItemOID="IT.LB.LBNRIND" Value="NORMAL"/>
      <ItemData ItemOID="IT.LB.LBLOBXFL" Value="Y"/>
      <ItemData ItemOID="IT.LB.VISITNUM" Value="1"/>
      <ItemData ItemOID="IT.LB.VISIT" Value="SCREENING 1"/>
      <ItemData ItemOID="IT.LB.EPOCH" Value="SCREENING"/>
      <ItemData ItemOID="IT.LB.LBDTC" Value="2012-11-23T11:20"/>
      <ItemData ItemOID="IT.LB.LBDY" Value="-7"/>
    </ItemGroupData>
    <ItemGroupData ItemGroupOID="IG.LB" data:ItemGroupDataSeq="5">
      <ItemData ItemOID="IT.LB.STUDYID" Value="CDISCPILOT01"/>
      <ItemData ItemOID="IT.LB.DOMAIN" Value="LB"/>
      <ItemData ItemOID="IT.LB.USUBJID" Value="CDISC001"/>
      <ItemData ItemOID="IT.LB.LBSEQ" Value="33"/>
      <ItemData ItemOID="IT.LB.LBTESTCD" Value="TSH"/>
      <ItemData ItemOID="IT.LB.LBTEST" Value="Thyrotropin"/>
      <ItemData ItemOID="IT.LB.LBCAT" Value="OTHER"/>
      <ItemData ItemOID="IT.LB.LBORRES" Value="2.63"/>
      <ItemData ItemOID="IT.LB.LBORRESU" Value="mIU/L"/>
      <ItemData ItemOID="IT.LB.LBORNRLO" Value=".32"/>
      <ItemData ItemOID="IT.LB.LBORNRHI" Value="5"/>
      <ItemData ItemOID="IT.LB.LBSTRESC" Value="2.63"/>
      <ItemData ItemOID="IT.LB.LBSTRESN" Value="2.63"/>
      <ItemData ItemOID="IT.LB.LBSTRESU" Value="mU/L"/>
      <ItemData ItemOID="IT.LB.LBSTNRLO" Value="0.32"/>
      <ItemData ItemOID="IT.LB.LBSTNRHI" Value="5"/>
      <ItemData ItemOID="IT.LB.LBNRIND" Value="NORMAL"/>
      <ItemData ItemOID="IT.LB.LBLOBXFL" Value="Y"/>
      <ItemData ItemOID="IT.LB.VISITNUM" Value="1"/>
      <ItemData ItemOID="IT.LB.VISIT" Value="SCREENING 1"/>
      <ItemData ItemOID="IT.LB.EPOCH" Value="SCREENING"/>
      <ItemData ItemOID="IT.LB.LBDTC" Value="2012-11-23T11:20"/>
      <ItemData ItemOID="IT.LB.LBDY" Value="-7"/>
    </ItemGroupData>
    <ItemGroupData ItemGroupOID="IG.LB" data:ItemGroupDataSeq="6">
      <ItemData ItemOID="IT.LB.STUDYID" Value="CDISCPILOT01"/>
      <ItemData ItemOID="IT.LB.DOMAIN" Value="LB"/>
      <ItemData ItemOID="IT.LB.USUBJID" Value="CDISC001"/>
      <ItemData ItemOID="IT.LB.LBSEQ" Value="35"/>
      <ItemData ItemOID="IT.LB.LBTESTCD" Value="UROBIL"/>
      <ItemData ItemOID="IT.LB.LBTEST" Value="Urobilinogen"/>
      <ItemData ItemOID="IT.LB.LBCAT" Value="URINALYSIS"/>
      <ItemData ItemOID="IT.LB.LBORRES" Value="0"/>
      <ItemData ItemOID="IT.LB.LBSTRESC" Value="0"/>
      <ItemData ItemOID="IT.LB.LBSTRESN" Value="0"/>
      <ItemData ItemOID="IT.LB.LBNRIND" Value="NORMAL"/>
      <ItemData ItemOID="IT.LB.LBLOBXFL" Value="Y"/>
      <ItemData ItemOID="IT.LB.VISITNUM" Value="1"/>
      <ItemData ItemOID="IT.LB.VISIT" Value="SCREENING 1"/>
      <ItemData ItemOID="IT.LB.EPOCH" Value="SCREENING"/>
      <ItemData ItemOID="IT.LB.LBDTC" Value="2012-11-23T11:20"/>
      <ItemData ItemOID="IT.LB.LBDY" Value="-7"/>
    </ItemGroupData>
    <ItemGroupData ItemGroupOID="IG.LB" data:ItemGroupDataSeq="7">
      <ItemData ItemOID="IT.LB.STUDYID" Value="CDISCPILOT01"/>
      <ItemData ItemOID="IT.LB.DOMAIN" Value="LB"/>
      <ItemData ItemOID="IT.LB.USUBJID" Value="CDISC001"/>
      <ItemData ItemOID="IT.LB.LBSEQ" Value="36"/>
      <ItemData ItemOID="IT.LB.LBTESTCD" Value="VITB12"/>
      <ItemData ItemOID="IT.LB.LBTEST" Value="Vitamin B12"/>
      <ItemData ItemOID="IT.LB.LBCAT" Value="OTHER"/>
      <ItemData ItemOID="IT.LB.LBORRES" Value="641"/>
      <ItemData ItemOID="IT.LB.LBORRESU" Value="ng/L"/>
      <ItemData ItemOID="IT.LB.LBORNRLO" Value="200"/>
      <ItemData ItemOID="IT.LB.LBORNRHI" Value="900"/>
      <ItemData ItemOID="IT.LB.LBSTRESC" Value="472.9298"/>
      <ItemData ItemOID="IT.LB.LBSTRESN" Value="472.9298"/>
      <ItemData ItemOID="IT.LB.LBSTRESU" Value="pmol/L"/>
      <ItemData ItemOID="IT.LB.LBSTNRLO" Value="148"/>
      <ItemData ItemOID="IT.LB.LBSTNRHI" Value="664"/>
      <ItemData ItemOID="IT.LB.LBNRIND" Value="NORMAL"/>
      <ItemData ItemOID="IT.LB.LBLOBXFL" Value="Y"/>
      <ItemData ItemOID="IT.LB.VISITNUM" Value="1"/>
      <ItemData ItemOID="IT.LB.VISIT" Value="SCREENING 1"/>
      <ItemData ItemOID="IT.LB.EPOCH" Value="SCREENING"/>
      <ItemData ItemOID="IT.LB.LBDTC" Value="2012-11-23T11:20"/>
      <ItemData ItemOID="IT.LB.LBDY" Value="-7"/>
    </ItemGroupData>
    <ItemGroupData ItemGroupOID="IG.LB" data:ItemGroupDataSeq="8">
      <ItemData ItemOID="IT.LB.STUDYID" Value="CDISCPILOT01"/>
      <ItemData ItemOID="IT.LB.DOMAIN" Value="LB"/>
      <ItemData ItemOID="IT.LB.USUBJID" Value="CDISC001"/>
      <ItemData ItemOID="IT.LB.LBSEQ" Value="49"/>
      <ItemData ItemOID="IT.LB.LBTESTCD" Value="COLOR"/>
      <ItemData ItemOID="IT.LB.LBTEST" Value="Color"/>
      <ItemData ItemOID="IT.LB.LBCAT" Value="URINALYSIS"/>
      <ItemData ItemOID="IT.LB.LBORRES" Value="NORMAL"/>
      <ItemData ItemOID="IT.LB.LBSTRESC" Value="NORMAL"/>
      <ItemData ItemOID="IT.LB.LBNRIND" Value="NORMAL"/>
      <ItemData ItemOID="IT.LB.VISITNUM" Value="4"/>
      <ItemData ItemOID="IT.LB.VISIT" Value="WEEK 2"/>
      <ItemData ItemOID="IT.LB.EPOCH" Value="TREATMENT"/>
      <ItemData ItemOID="IT.LB.LBDTC" Value="2012-12-13T14:05"/>
      <ItemData ItemOID="IT.LB.LBDY" Value="14"/>
    </ItemGroupData>
    <ItemGroupData ItemGroupOID="IG.LB" data:ItemGroupDataSeq="9">
      <ItemData ItemOID="IT.LB.STUDYID" Value="CDISCPILOT01"/>
      <ItemData ItemOID="IT.LB.DOMAIN" Value="LB"/>
      <ItemData ItemOID="IT.LB.USUBJID" Value="CDISC001"/>
      <ItemData ItemOID="IT.LB.LBSEQ" Value="57"/>
      <ItemData ItemOID="IT.LB.LBTESTCD" Value="KETONES"/>
      <ItemData ItemOID="IT.LB.LBTEST" Value="Ketones"/>
      <ItemData ItemOID="IT.LB.LBCAT" Value="URINALYSIS"/>
      <ItemData ItemOID="IT.LB.LBORRES" Value="0"/>
      <ItemData ItemOID="IT.LB.LBSTRESC" Value="0"/>
      <ItemData ItemOID="IT.LB.LBSTRESN" Value="0"/>
      <ItemData ItemOID="IT.LB.LBNRIND" Value="NORMAL"/>
      <ItemData ItemOID="IT.LB.VISITNUM" Value="4"/>
      <ItemData ItemOID="IT.LB.VISIT" Value="WEEK 2"/>
      <ItemData ItemOID="IT.LB.EPOCH" Value="TREATMENT"/>
      <ItemData ItemOID="IT.LB.LBDTC" Value="2012-12-13T14:05"/>
      <ItemData ItemOID="IT.LB.LBDY" Value="14"/>
    </ItemGroupData>
    <ItemGroupData ItemGroupOID="IG.LB" data:ItemGroupDataSeq="10">
      <ItemData ItemOID="IT.LB.STUDYID" Value="CDISCPILOT01"/>
      <ItemData ItemOID="IT.LB.DOMAIN" Value="LB"/>
      <ItemData ItemOID="IT.LB.USUBJID" Value="CDISC001"/>
      <ItemData ItemOID="IT.LB.LBSEQ" Value="64"/>
      <ItemData ItemOID="IT.LB.LBTESTCD" Value="PH"/>
      <ItemData ItemOID="IT.LB.LBTEST" Value="pH"/>
      <ItemData ItemOID="IT.LB.LBCAT" Value="URINALYSIS"/>
      <ItemData ItemOID="IT.LB.LBORRES" Value="5"/>
      <ItemData ItemOID="IT.LB.LBORNRLO" Value="5"/>
      <ItemData ItemOID="IT.LB.LBORNRHI" Value="8"/>
      <ItemData ItemOID="IT.LB.LBSTRESC" Value="5"/>
      <ItemData ItemOID="IT.LB.LBSTRESN" Value="5"/>
      <ItemData ItemOID="IT.LB.LBSTNRLO" Value="5"/>
      <ItemData ItemOID="IT.LB.LBSTNRHI" Value="8"/>
      <ItemData ItemOID="IT.LB.LBNRIND" Value="NORMAL"/>
      <ItemData ItemOID="IT.LB.VISITNUM" Value="4"/>
      <ItemData ItemOID="IT.LB.VISIT" Value="WEEK 2"/>
      <ItemData ItemOID="IT.LB.EPOCH" Value="TREATMENT"/>
      <ItemData ItemOID="IT.LB.LBDTC" Value="2012-12-13T14:05"/>
      <ItemData ItemOID="IT.LB.LBDY" Value="14"/>
    </ItemGroupData>
    <ItemGroupData ItemGroupOID="IG.LB" data:ItemGroupDataSeq="11">
      <ItemData ItemOID="IT.LB.STUDYID" Value="CDISCPILOT01"/>
      <ItemData ItemOID="IT.LB.DOMAIN" Value="LB"/>
      <ItemData ItemOID="IT.LB.USUBJID" Value="CDISC001"/>
      <ItemData ItemOID="IT.LB.LBSEQ" Value="69"/>
      <ItemData ItemOID="IT.LB.LBTESTCD" Value="SPGRAV"/>
      <ItemData ItemOID="IT.LB.LBTEST" Value="Specific Gravity"/>
      <ItemData ItemOID="IT.LB.LBCAT" Value="URINALYSIS"/>
      <ItemData ItemOID="IT.LB.LBORRES" Value="1.023"/>
      <ItemData ItemOID="IT.LB.LBORNRLO" Value="1.006"/>
      <ItemData ItemOID="IT.LB.LBORNRHI" Value="1.03"/>
      <ItemData ItemOID="IT.LB.LBSTRESC" Value="1.023"/>
      <ItemData ItemOID="IT.LB.LBSTRESN" Value="1.023"/>
      <ItemData ItemOID="IT.LB.LBSTNRLO" Value="1.006"/>
      <ItemData ItemOID="IT.LB.LBSTNRHI" Value="1.03"/>
      <ItemData ItemOID="IT.LB.LBNRIND" Value="NORMAL"/>
      <ItemData ItemOID="IT.LB.VISITNUM" Value="4"/>
      <ItemData ItemOID="IT.LB.VISIT" Value="WEEK 2"/>
      <ItemData ItemOID="IT.LB.EPOCH" Value="TREATMENT"/>
      <ItemData ItemOID="IT.LB.LBDTC" Value="2012-12-13T14:05"/>
      <ItemData ItemOID="IT.LB.LBDY" Value="14"/>
    </ItemGroupData>
    <ItemGroupData ItemGroupOID="IG.LB" data:ItemGroupDataSeq="12">
      <ItemData ItemOID="IT.LB.STUDYID" Value="CDISCPILOT01"/>
      <ItemData ItemOID="IT.LB.DOMAIN" Value="LB"/>
      <ItemData ItemOID="IT.LB.USUBJID" Value="CDISC001"/>
      <ItemData ItemOID="IT.LB.LBSEQ" Value="71"/>
      <ItemData ItemOID="IT.LB.LBTESTCD" Value="UROBIL"/>
      <ItemData ItemOID="IT.LB.LBTEST" Value="Urobilinogen"/>
      <ItemData ItemOID="IT.LB.LBCAT" Value="URINALYSIS"/>
      <ItemData ItemOID="IT.LB.LBORRES" Value="0"/>
      <ItemData ItemOID="IT.LB.LBSTRESC" Value="0"/>
      <ItemData ItemOID="IT.LB.LBSTRESN" Value="0"/>
      <ItemData ItemOID="IT.LB.LBNRIND" Value="NORMAL"/>
      <ItemData ItemOID="IT.LB.VISITNUM" Value="4"/>
      <ItemData ItemOID="IT.LB.VISIT" Value="WEEK 2"/>
      <ItemData ItemOID="IT.LB.EPOCH" Value="TREATMENT"/>
      <ItemData ItemOID="IT.LB.LBDTC" Value="2012-12-13T14:05"/>
      <ItemData ItemOID="IT.LB.LBDY" Value="14"/>
    </ItemGroupData>
    <ItemGroupData ItemGroupOID="IG.LB" data:ItemGroupDataSeq="13">
      <ItemData ItemOID="IT.LB.STUDYID" Value="CDISCPILOT01"/>
      <ItemData ItemOID="IT.LB.DOMAIN" Value="LB"/>
      <ItemData ItemOID="IT.LB.USUBJID" Value="CDISC001"/>
      <ItemData ItemOID="IT.LB.LBSEQ" Value="159"/>
      <ItemData ItemOID="IT.LB.LBTESTCD" Value="COLOR"/>
      <ItemData ItemOID="IT.LB.LBTEST" Value="Color"/>
      <ItemData ItemOID="IT.LB.LBCAT" Value="URINALYSIS"/>
      <ItemData ItemOID="IT.LB.LBORRES" Value="NORMAL"/>
      <ItemData ItemOID="IT.LB.LBSTRESC" Value="NORMAL"/>
      <ItemData ItemOID="IT.LB.LBNRIND" Value="NORMAL"/>
      <ItemData ItemOID="IT.LB.VISITNUM" Value="8"/>
      <ItemData ItemOID="IT.LB.VISIT" Value="WEEK 8"/>
      <ItemData ItemOID="IT.LB.EPOCH" Value="TREATMENT"/>
      <ItemData ItemOID="IT.LB.LBDTC" Value="2013-01-23T12:13"/>
      <ItemData ItemOID="IT.LB.LBDY" Value="55"/>
    </ItemGroupData>
    <ItemGroupData ItemGroupOID="IG.LB" data:ItemGroupDataSeq="14">
      <ItemData ItemOID="IT.LB.STUDYID" Value="CDISCPILOT01"/>
      <ItemData ItemOID="IT.LB.DOMAIN" Value="LB"/>
      <ItemData ItemOID="IT.LB.USUBJID" Value="CDISC001"/>
      <ItemData ItemOID="IT.LB.LBSEQ" Value="167"/>
      <ItemData ItemOID="IT.LB.LBTESTCD" Value="KETONES"/>
      <ItemData ItemOID="IT.LB.LBTEST" Value="Ketones"/>
      <ItemData ItemOID="IT.LB.LBCAT" Value="URINALYSIS"/>
      <ItemData ItemOID="IT.LB.LBORRES" Value="0"/>
      <ItemData ItemOID="IT.LB.LBSTRESC" Value="0"/>
      <ItemData ItemOID="IT.LB.LBSTRESN" Value="0"/>
      <ItemData ItemOID="IT.LB.LBNRIND" Value="NORMAL"/>
      <ItemData ItemOID="IT.LB.VISITNUM" Value="8"/>
      <ItemData ItemOID="IT.LB.VISIT" Value="WEEK 8"/>
      <ItemData ItemOID="IT.LB.EPOCH" Value="TREATMENT"/>
      <ItemData ItemOID="IT.LB.LBDTC" Value="2013-01-23T12:13"/>
      <ItemData ItemOID="IT.LB.LBDY" Value="55"/>
    </ItemGroupData>
    <ItemGroupData ItemGroupOID="IG.LB" data:ItemGroupDataSeq="15">
      <ItemData ItemOID="IT.LB.STUDYID" Value="CDISCPILOT01"/>
      <ItemData ItemOID="IT.LB.DOMAIN" Value="LB"/>
      <ItemData ItemOID="IT.LB.USUBJID" Value="CDISC001"/>
      <ItemData ItemOID="IT.LB.LBSEQ" Value="174"/>
      <ItemData ItemOID="IT.LB.LBTESTCD" Value="PH"/>
      <ItemData ItemOID="IT.LB.LBTEST" Value="pH"/>
      <ItemData ItemOID="IT.LB.LBCAT" Value="URINALYSIS"/>
      <ItemData ItemOID="IT.LB.LBORRES" Value="5"/>
      <ItemData ItemOID="IT.LB.LBORNRLO" Value="5"/>
      <ItemData ItemOID="IT.LB.LBORNRHI" Value="8"/>
      <ItemData ItemOID="IT.LB.LBSTRESC" Value="5"/>
      <ItemData ItemOID="IT.LB.LBSTRESN" Value="5"/>
      <ItemData ItemOID="IT.LB.LBSTNRLO" Value="5"/>
      <ItemData ItemOID="IT.LB.LBSTNRHI" Value="8"/>
      <ItemData ItemOID="IT.LB.LBNRIND" Value="NORMAL"/>
      <ItemData ItemOID="IT.LB.VISITNUM" Value="8"/>
      <ItemData ItemOID="IT.LB.VISIT" Value="WEEK 8"/>
      <ItemData ItemOID="IT.LB.EPOCH" Value="TREATMENT"/>
      <ItemData ItemOID="IT.LB.LBDTC" Value="2013-01-23T12:13"/>
      <ItemData ItemOID="IT.LB.LBDY" Value="55"/>
    </ItemGroupData>
    <ItemGroupData ItemGroupOID="IG.LB" data:ItemGroupDataSeq="16">
      <ItemData ItemOID="IT.LB.STUDYID" Value="CDISCPILOT01"/>
      <ItemData ItemOID="IT.LB.DOMAIN" Value="LB"/>
      <ItemData ItemOID="IT.LB.USUBJID" Value="CDISC001"/>
      <ItemData ItemOID="IT.LB.LBSEQ" Value="179"/>
      <ItemData ItemOID="IT.LB.LBTESTCD" Value="SPGRAV"/>
      <ItemData ItemOID="IT.LB.LBTEST" Value="Specific Gravity"/>
      <ItemData ItemOID="IT.LB.LBCAT" Value="URINALYSIS"/>
      <ItemData ItemOID="IT.LB.LBORRES" Value="1.023"/>
      <ItemData ItemOID="IT.LB.LBORNRLO" Value="1.006"/>
      <ItemData ItemOID="IT.LB.LBORNRHI" Value="1.03"/>
      <ItemData ItemOID="IT.LB.LBSTRESC" Value="1.023"/>
      <ItemData ItemOID="IT.LB.LBSTRESN" Value="1.023"/>
      <ItemData ItemOID="IT.LB.LBSTNRLO" Value="1.006"/>
      <ItemData ItemOID="IT.LB.LBSTNRHI" Value="1.03"/>
      <ItemData ItemOID="IT.LB.LBNRIND" Value="NORMAL"/>
      <ItemData ItemOID="IT.LB.VISITNUM" Value="8"/>
      <ItemData ItemOID="IT.LB.VISIT" Value="WEEK 8"/>
      <ItemData ItemOID="IT.LB.EPOCH" Value="TREATMENT"/>
      <ItemData ItemOID="IT.LB.LBDTC" Value="2013-01-23T12:13"/>
      <ItemData ItemOID="IT.LB.LBDY" Value="55"/>
    </ItemGroupData>
    <ItemGroupData ItemGroupOID="IG.LB" data:ItemGroupDataSeq="17">
      <ItemData ItemOID="IT.LB.STUDYID" Value="CDISCPILOT01"/>
      <ItemData ItemOID="IT.LB.DOMAIN" Value="LB"/>
      <ItemData ItemOID="IT.LB.USUBJID" Value="CDISC001"/>
      <ItemData ItemOID="IT.LB.LBSEQ" Value="181"/>
      <ItemData ItemOID="IT.LB.LBTESTCD" Value="UROBIL"/>
      <ItemData ItemOID="IT.LB.LBTEST" Value="Urobilinogen"/>
      <ItemData ItemOID="IT.LB.LBCAT" Value="URINALYSIS"/>
      <ItemData ItemOID="IT.LB.LBORRES" Value="0"/>
      <ItemData ItemOID="IT.LB.LBSTRESC" Value="0"/>
      <ItemData ItemOID="IT.LB.LBSTRESN" Value="0"/>
      <ItemData ItemOID="IT.LB.LBNRIND" Value="NORMAL"/>
      <ItemData ItemOID="IT.LB.VISITNUM" Value="8"/>
      <ItemData ItemOID="IT.LB.VISIT" Value="WEEK 8"/>
      <ItemData ItemOID="IT.LB.EPOCH" Value="TREATMENT"/>
      <ItemData ItemOID="IT.LB.LBDTC" Value="2013-01-23T12:13"/>
      <ItemData ItemOID="IT.LB.LBDY" Value="55"/>
    </ItemGroupData>
    <ItemGroupData ItemGroupOID="IG.LB" data:ItemGroupDataSeq="18">
      <ItemData ItemOID="IT.LB.STUDYID" Value="CDISCPILOT01"/>
      <ItemData ItemOID="IT.LB.DOMAIN" Value="LB"/>
      <ItemData ItemOID="IT.LB.USUBJID" Value="CDISC002"/>
      <ItemData ItemOID="IT.LB.LBSEQ" Value="12"/>
      <ItemData ItemOID="IT.LB.LBTESTCD" Value="COLOR"/>
      <ItemData ItemOID="IT.LB.LBTEST" Value="Color"/>
      <ItemData ItemOID="IT.LB.LBCAT" Value="URINALYSIS"/>
      <ItemData ItemOID="IT.LB.LBORRES" Value="NORMAL"/>
      <ItemData ItemOID="IT.LB.LBSTRESC" Value="NORMAL"/>
      <ItemData ItemOID="IT.LB.LBNRIND" Value="NORMAL"/>
      <ItemData ItemOID="IT.LB.LBLOBXFL" Value="Y"/>
      <ItemData ItemOID="IT.LB.VISITNUM" Value="1"/>
      <ItemData ItemOID="IT.LB.VISIT" Value="SCREENING 1"/>
      <ItemData ItemOID="IT.LB.EPOCH" Value="SCREENING"/>
      <ItemData ItemOID="IT.LB.LBDTC" Value="2012-10-30T14:26"/>
      <ItemData ItemOID="IT.LB.LBDY" Value="-16"/>
    </ItemGroupData>
    <ItemGroupData ItemGroupOID="IG.LB" data:ItemGroupDataSeq="19">
      <ItemData ItemOID="IT.LB.STUDYID" Value="CDISCPILOT01"/>
      <ItemData ItemOID="IT.LB.DOMAIN" Value="LB"/>
      <ItemData ItemOID="IT.LB.USUBJID" Value="CDISC002"/>
      <ItemData ItemOID="IT.LB.LBSEQ" Value="20"/>
      <ItemData ItemOID="IT.LB.LBTESTCD" Value="KETONES"/>
      <ItemData ItemOID="IT.LB.LBTEST" Value="Ketones"/>
      <ItemData ItemOID="IT.LB.LBCAT" Value="URINALYSIS"/>
      <ItemData ItemOID="IT.LB.LBORRES" Value="1"/>
      <ItemData ItemOID="IT.LB.LBSTRESC" Value="1"/>
      <ItemData ItemOID="IT.LB.LBSTRESN" Value="1"/>
      <ItemData ItemOID="IT.LB.LBNRIND" Value="ABNORMAL"/>
      <ItemData ItemOID="IT.LB.LBLOBXFL" Value="Y"/>
      <ItemData ItemOID="IT.LB.VISITNUM" Value="1"/>
      <ItemData ItemOID="IT.LB.VISIT" Value="SCREENING 1"/>
      <ItemData ItemOID="IT.LB.EPOCH" Value="SCREENING"/>
      <ItemData ItemOID="IT.LB.LBDTC" Value="2012-10-30T14:26"/>
      <ItemData ItemOID="IT.LB.LBDY" Value="-16"/>
    </ItemGroupData>
    <ItemGroupData ItemGroupOID="IG.LB" data:ItemGroupDataSeq="20">
      <ItemData ItemOID="IT.LB.STUDYID" Value="CDISCPILOT01"/>
      <ItemData ItemOID="IT.LB.DOMAIN" Value="LB"/>
      <ItemData ItemOID="IT.LB.USUBJID" Value="CDISC002"/>
      <ItemData ItemOID="IT.LB.LBSEQ" Value="27"/>
      <ItemData ItemOID="IT.LB.LBTESTCD" Value="PH"/>
      <ItemData ItemOID="IT.LB.LBTEST" Value="pH"/>
      <ItemData ItemOID="IT.LB.LBCAT" Value="URINALYSIS"/>
      <ItemData ItemOID="IT.LB.LBORRES" Value="5"/>
      <ItemData ItemOID="IT.LB.LBORNRLO" Value="5"/>
      <ItemData ItemOID="IT.LB.LBORNRHI" Value="8"/>
      <ItemData ItemOID="IT.LB.LBSTRESC" Value="5"/>
      <ItemData ItemOID="IT.LB.LBSTRESN" Value="5"/>
      <ItemData ItemOID="IT.LB.LBSTNRLO" Value="5"/>
      <ItemData ItemOID="IT.LB.LBSTNRHI" Value="8"/>
      <ItemData ItemOID="IT.LB.LBNRIND" Value="NORMAL"/>
      <ItemData ItemOID="IT.LB.LBLOBXFL" Value="Y"/>
      <ItemData ItemOID="IT.LB.VISITNUM" Value="1"/>
      <ItemData ItemOID="IT.LB.VISIT" Value="SCREENING 1"/>
      <ItemData ItemOID="IT.LB.EPOCH" Value="SCREENING"/>
      <ItemData ItemOID="IT.LB.LBDTC" Value="2012-10-30T14:26"/>
      <ItemData ItemOID="IT.LB.LBDY" Value="-16"/>
    </ItemGroupData>
    <ItemGroupData ItemGroupOID="IG.LB" data:ItemGroupDataSeq="21">
      <ItemData ItemOID="IT.LB.STUDYID" Value="CDISCPILOT01"/>
      <ItemData ItemOID="IT.LB.DOMAIN" Value="LB"/>
      <ItemData ItemOID="IT.LB.USUBJID" Value="CDISC002"/>
      <ItemData ItemOID="IT.LB.LBSEQ" Value="32"/>
      <ItemData ItemOID="IT.LB.LBTESTCD" Value="SPGRAV"/>
      <ItemData ItemOID="IT.LB.LBTEST" Value="Specific Gravity"/>
      <ItemData ItemOID="IT.LB.LBCAT" Value="URINALYSIS"/>
      <ItemData ItemOID="IT.LB.LBORRES" Value="1.021"/>
      <ItemData ItemOID="IT.LB.LBORNRLO" Value="1.006"/>
      <ItemData ItemOID="IT.LB.LBORNRHI" Value="1.03"/>
      <ItemData ItemOID="IT.LB.LBSTRESC" Value="1.021"/>
      <ItemData ItemOID="IT.LB.LBSTRESN" Value="1.021"/>
      <ItemData ItemOID="IT.LB.LBSTNRLO" Value="1.006"/>
      <ItemData ItemOID="IT.LB.LBSTNRHI" Value="1.03"/>
      <ItemData ItemOID="IT.LB.LBNRIND" Value="NORMAL"/>
      <ItemData ItemOID="IT.LB.LBLOBXFL" Value="Y"/>
      <ItemData ItemOID="IT.LB.VISITNUM" Value="1"/>
      <ItemData ItemOID="IT.LB.VISIT" Value="SCREENING 1"/>
      <ItemData ItemOID="IT.LB.EPOCH" Value="SCREENING"/>
      <ItemData ItemOID="IT.LB.LBDTC" Value="2012-10-30T14:26"/>
      <ItemData ItemOID="IT.LB.LBDY" Value="-16"/>
    </ItemGroupData>
    <ItemGroupData ItemGroupOID="IG.LB" data:ItemGroupDataSeq="22">
      <ItemData ItemOID="IT.LB.STUDYID" Value="CDISCPILOT01"/>
      <ItemData ItemOID="IT.LB.DOMAIN" Value="LB"/>
      <ItemData ItemOID="IT.LB.USUBJID" Value="CDISC002"/>
      <ItemData ItemOID="IT.LB.LBSEQ" Value="33"/>
      <ItemData ItemOID="IT.LB.LBTESTCD" Value="TSH"/>
      <ItemData ItemOID="IT.LB.LBTEST" Value="Thyrotropin"/>
      <ItemData ItemOID="IT.LB.LBCAT" Value="OTHER"/>
      <ItemData ItemOID="IT.LB.LBORRES" Value="1.75"/>
      <ItemData ItemOID="IT.LB.LBORRESU" Value="mIU/L"/>
      <ItemData ItemOID="IT.LB.LBORNRLO" Value=".32"/>
      <ItemData ItemOID="IT.LB.LBORNRHI" Value="5"/>
      <ItemData ItemOID="IT.LB.LBSTRESC" Value="1.75"/>
      <ItemData ItemOID="IT.LB.LBSTRESN" Value="1.75"/>
      <ItemData ItemOID="IT.LB.LBSTRESU" Value="mU/L"/>
      <ItemData ItemOID="IT.LB.LBSTNRLO" Value="0.32"/>
      <ItemData ItemOID="IT.LB.LBSTNRHI" Value="5"/>
      <ItemData ItemOID="IT.LB.LBNRIND" Value="NORMAL"/>
      <ItemData ItemOID="IT.LB.LBLOBXFL" Value="Y"/>
      <ItemData ItemOID="IT.LB.VISITNUM" Value="1"/>
      <ItemData ItemOID="IT.LB.VISIT" Value="SCREENING 1"/>
      <ItemData ItemOID="IT.LB.EPOCH" Value="SCREENING"/>
      <ItemData ItemOID="IT.LB.LBDTC" Value="2012-10-30T14:26"/>
      <ItemData ItemOID="IT.LB.LBDY" Value="-16"/>
    </ItemGroupData>
    <ItemGroupData ItemGroupOID="IG.LB" data:ItemGroupDataSeq="23">
      <ItemData ItemOID="IT.LB.STUDYID" Value="CDISCPILOT01"/>
      <ItemData ItemOID="IT.LB.DOMAIN" Value="LB"/>
      <ItemData ItemOID="IT.LB.USUBJID" Value="CDISC002"/>
      <ItemData ItemOID="IT.LB.LBSEQ" Value="35"/>
      <ItemData ItemOID="IT.LB.LBTESTCD" Value="UROBIL"/>
      <ItemData ItemOID="IT.LB.LBTEST" Value="Urobilinogen"/>
      <ItemData ItemOID="IT.LB.LBCAT" Value="URINALYSIS"/>
      <ItemData ItemOID="IT.LB.LBORRES" Value="0"/>
      <ItemData ItemOID="IT.LB.LBSTRESC" Value="0"/>
      <ItemData ItemOID="IT.LB.LBSTRESN" Value="0"/>
      <ItemData ItemOID="IT.LB.LBNRIND" Value="NORMAL"/>
      <ItemData ItemOID="IT.LB.LBLOBXFL" Value="Y"/>
      <ItemData ItemOID="IT.LB.VISITNUM" Value="1"/>
      <ItemData ItemOID="IT.LB.VISIT" Value="SCREENING 1"/>
      <ItemData ItemOID="IT.LB.EPOCH" Value="SCREENING"/>
      <ItemData ItemOID="IT.LB.LBDTC" Value="2012-10-30T14:26"/>
      <ItemData ItemOID="IT.LB.LBDY" Value="-16"/>
    </ItemGroupData>
    <ItemGroupData ItemGroupOID="IG.LB" data:ItemGroupDataSeq="24">
      <ItemData ItemOID="IT.LB.STUDYID" Value="CDISCPILOT01"/>
      <ItemData ItemOID="IT.LB.DOMAIN" Value="LB"/>
      <ItemData ItemOID="IT.LB.USUBJID" Value="CDISC002"/>
      <ItemData ItemOID="IT.LB.LBSEQ" Value="36"/>
      <ItemData ItemOID="IT.LB.LBTESTCD" Value="VITB12"/>
      <ItemData ItemOID="IT.LB.LBTEST" Value="Vitamin B12"/>
      <ItemData ItemOID="IT.LB.LBCAT" Value="OTHER"/>
      <ItemData ItemOID="IT.LB.LBORRES" Value="427"/>
      <ItemData ItemOID="IT.LB.LBORRESU" Value="ng/L"/>
      <ItemData ItemOID="IT.LB.LBORNRLO" Value="200"/>
      <ItemData ItemOID="IT.LB.LBORNRHI" Value="900"/>
      <ItemData ItemOID="IT.LB.LBSTRESC" Value="315.0406"/>
      <ItemData ItemOID="IT.LB.LBSTRESN" Value="315.0406"/>
      <ItemData ItemOID="IT.LB.LBSTRESU" Value="pmol/L"/>
      <ItemData ItemOID="IT.LB.LBSTNRLO" Value="148"/>
      <ItemData ItemOID="IT.LB.LBSTNRHI" Value="664"/>
      <ItemData ItemOID="IT.LB.LBNRIND" Value="NORMAL"/>
      <ItemData ItemOID="IT.LB.LBLOBXFL" Value="Y"/>
      <ItemData ItemOID="IT.LB.VISITNUM" Value="1"/>
      <ItemData ItemOID="IT.LB.VISIT" Value="SCREENING 1"/>
      <ItemData ItemOID="IT.LB.EPOCH" Value="SCREENING"/>
      <ItemData ItemOID="IT.LB.LBDTC" Value="2012-10-30T14:26"/>
      <ItemData ItemOID="IT.LB.LBDY" Value="-16"/>
    </ItemGroupData>
    <ItemGroupData ItemGroupOID="IG.LB" data:ItemGroupDataSeq="25">
      <ItemData ItemOID="IT.LB.STUDYID" Value="CDISCPILOT01"/>
      <ItemData ItemOID="IT.LB.DOMAIN" Value="LB"/>
      <ItemData ItemOID="IT.LB.USUBJID" Value="CDISC002"/>
      <ItemData ItemOID="IT.LB.LBSEQ" Value="49"/>
      <ItemData ItemOID="IT.LB.LBTESTCD" Value="COLOR"/>
      <ItemData ItemOID="IT.LB.LBTEST" Value="Color"/>
      <ItemData ItemOID="IT.LB.LBCAT" Value="URINALYSIS"/>
      <ItemData ItemOID="IT.LB.LBORRES" Value="NORMAL"/>
      <ItemData ItemOID="IT.LB.LBSTRESC" Value="NORMAL"/>
      <ItemData ItemOID="IT.LB.LBNRIND" Value="NORMAL"/>
      <ItemData ItemOID="IT.LB.VISITNUM" Value="4"/>
      <ItemData ItemOID="IT.LB.VISIT" Value="WEEK 2"/>
      <ItemData ItemOID="IT.LB.EPOCH" Value="TREATMENT"/>
      <ItemData ItemOID="IT.LB.LBDTC" Value="2012-11-28T10:00"/>
      <ItemData ItemOID="IT.LB.LBDY" Value="14"/>
    </ItemGroupData>
    <ItemGroupData ItemGroupOID="IG.LB" data:ItemGroupDataSeq="26">
      <ItemData ItemOID="IT.LB.STUDYID" Value="CDISCPILOT01"/>
      <ItemData ItemOID="IT.LB.DOMAIN" Value="LB"/>
      <ItemData ItemOID="IT.LB.USUBJID" Value="CDISC002"/>
      <ItemData ItemOID="IT.LB.LBSEQ" Value="57"/>
      <ItemData ItemOID="IT.LB.LBTESTCD" Value="KETONES"/>
      <ItemData ItemOID="IT.LB.LBTEST" Value="Ketones"/>
      <ItemData ItemOID="IT.LB.LBCAT" Value="URINALYSIS"/>
      <ItemData ItemOID="IT.LB.LBORRES" Value="0"/>
      <ItemData ItemOID="IT.LB.LBSTRESC" Value="0"/>
      <ItemData ItemOID="IT.LB.LBSTRESN" Value="0"/>
      <ItemData ItemOID="IT.LB.LBNRIND" Value="NORMAL"/>
      <ItemData ItemOID="IT.LB.VISITNUM" Value="4"/>
      <ItemData ItemOID="IT.LB.VISIT" Value="WEEK 2"/>
      <ItemData ItemOID="IT.LB.EPOCH" Value="TREATMENT"/>
      <ItemData ItemOID="IT.LB.LBDTC" Value="2012-11-28T10:00"/>
      <ItemData ItemOID="IT.LB.LBDY" Value="14"/>
    </ItemGroupData>
    <ItemGroupData ItemGroupOID="IG.LB" data:ItemGroupDataSeq="27">
      <ItemData ItemOID="IT.LB.STUDYID" Value="CDISCPILOT01"/>
      <ItemData ItemOID="IT.LB.DOMAIN" Value="LB"/>
      <ItemData ItemOID="IT.LB.USUBJID" Value="CDISC002"/>
      <ItemData ItemOID="IT.LB.LBSEQ" Value="64"/>
      <ItemData ItemOID="IT.LB.LBTESTCD" Value="PH"/>
      <ItemData ItemOID="IT.LB.LBTEST" Value="pH"/>
      <ItemData ItemOID="IT.LB.LBCAT" Value="URINALYSIS"/>
      <ItemData ItemOID="IT.LB.LBORRES" Value="5"/>
      <ItemData ItemOID="IT.LB.LBORNRLO" Value="5"/>
      <ItemData ItemOID="IT.LB.LBORNRHI" Value="8"/>
      <ItemData ItemOID="IT.LB.LBSTRESC" Value="5"/>
      <ItemData ItemOID="IT.LB.LBSTRESN" Value="5"/>
      <ItemData ItemOID="IT.LB.LBSTNRLO" Value="5"/>
      <ItemData ItemOID="IT.LB.LBSTNRHI" Value="8"/>
      <ItemData ItemOID="IT.LB.LBNRIND" Value="NORMAL"/>
      <ItemData ItemOID="IT.LB.VISITNUM" Value="4"/>
      <ItemData ItemOID="IT.LB.VISIT" Value="WEEK 2"/>
      <ItemData ItemOID="IT.LB.EPOCH" Value="TREATMENT"/>
      <ItemData ItemOID="IT.LB.LBDTC" Value="2012-11-28T10:00"/>
      <ItemData ItemOID="IT.LB.LBDY" Value="14"/>
    </ItemGroupData>
    <ItemGroupData ItemGroupOID="IG.LB" data:ItemGroupDataSeq="28">
      <ItemData ItemOID="IT.LB.STUDYID" Value="CDISCPILOT01"/>
      <ItemData ItemOID="IT.LB.DOMAIN" Value="LB"/>
      <ItemData ItemOID="IT.LB.USUBJID" Value="CDISC002"/>
      <ItemData ItemOID="IT.LB.LBSEQ" Value="69"/>
      <ItemData ItemOID="IT.LB.LBTESTCD" Value="SPGRAV"/>
      <ItemData ItemOID="IT.LB.LBTEST" Value="Specific Gravity"/>
      <ItemData ItemOID="IT.LB.LBCAT" Value="URINALYSIS"/>
      <ItemData ItemOID="IT.LB.LBORRES" Value="1.016"/>
      <ItemData ItemOID="IT.LB.LBORNRLO" Value="1.006"/>
      <ItemData ItemOID="IT.LB.LBORNRHI" Value="1.03"/>
      <ItemData ItemOID="IT.LB.LBSTRESC" Value="1.016"/>
      <ItemData ItemOID="IT.LB.LBSTRESN" Value="1.016"/>
      <ItemData ItemOID="IT.LB.LBSTNRLO" Value="1.006"/>
      <ItemData ItemOID="IT.LB.LBSTNRHI" Value="1.03"/>
      <ItemData ItemOID="IT.LB.LBNRIND" Value="NORMAL"/>
      <ItemData ItemOID="IT.LB.VISITNUM" Value="4"/>
      <ItemData ItemOID="IT.LB.VISIT" Value="WEEK 2"/>
      <ItemData ItemOID="IT.LB.EPOCH" Value="TREATMENT"/>
      <ItemData ItemOID="IT.LB.LBDTC" Value="2012-11-28T10:00"/>
      <ItemData ItemOID="IT.LB.LBDY" Value="14"/>
    </ItemGroupData>
    <ItemGroupData ItemGroupOID="IG.LB" data:ItemGroupDataSeq="29">
      <ItemData ItemOID="IT.LB.STUDYID" Value="CDISCPILOT01"/>
      <ItemData ItemOID="IT.LB.DOMAIN" Value="LB"/>
      <ItemData ItemOID="IT.LB.USUBJID" Value="CDISC002"/>
      <ItemData ItemOID="IT.LB.LBSEQ" Value="71"/>
      <ItemData ItemOID="IT.LB.LBTESTCD" Value="UROBIL"/>
      <ItemData ItemOID="IT.LB.LBTEST" Value="Urobilinogen"/>
      <ItemData ItemOID="IT.LB.LBCAT" Value="URINALYSIS"/>
      <ItemData ItemOID="IT.LB.LBORRES" Value="0"/>
      <ItemData ItemOID="IT.LB.LBSTRESC" Value="0"/>
      <ItemData ItemOID="IT.LB.LBSTRESN" Value="0"/>
      <ItemData ItemOID="IT.LB.LBNRIND" Value="NORMAL"/>
      <ItemData ItemOID="IT.LB.VISITNUM" Value="4"/>
      <ItemData ItemOID="IT.LB.VISIT" Value="WEEK 2"/>
      <ItemData ItemOID="IT.LB.EPOCH" Value="TREATMENT"/>
      <ItemData ItemOID="IT.LB.LBDTC" Value="2012-11-28T10:00"/>
      <ItemData ItemOID="IT.LB.LBDY" Value="14"/>
    </ItemGroupData>
    <ItemGroupData ItemGroupOID="IG.LB" data:ItemGroupDataSeq="30">
      <ItemData ItemOID="IT.LB.STUDYID" Value="CDISCPILOT01"/>
      <ItemData ItemOID="IT.LB.DOMAIN" Value="LB"/>
      <ItemData ItemOID="IT.LB.USUBJID" Value="CDISC003"/>
      <ItemData ItemOID="IT.LB.LBSEQ" Value="12"/>
      <ItemData ItemOID="IT.LB.LBTESTCD" Value="COLOR"/>
      <ItemData ItemOID="IT.LB.LBTEST" Value="Color"/>
      <ItemData ItemOID="IT.LB.LBCAT" Value="URINALYSIS"/>
      <ItemData ItemOID="IT.LB.LBORRES" Value="NORMAL"/>
      <ItemData ItemOID="IT.LB.LBSTRESC" Value="NORMAL"/>
      <ItemData ItemOID="IT.LB.LBNRIND" Value="NORMAL"/>
      <ItemData ItemOID="IT.LB.LBLOBXFL" Value="Y"/>
      <ItemData ItemOID="IT.LB.VISITNUM" Value="1"/>
      <ItemData ItemOID="IT.LB.VISIT" Value="SCREENING 1"/>
      <ItemData ItemOID="IT.LB.EPOCH" Value="SCREENING"/>
      <ItemData ItemOID="IT.LB.LBDTC" Value="2013-08-20T12:27"/>
      <ItemData ItemOID="IT.LB.LBDY" Value="-9"/>
    </ItemGroupData>
    <ItemGroupData ItemGroupOID="IG.LB" data:ItemGroupDataSeq="31">
      <ItemData ItemOID="IT.LB.STUDYID" Value="CDISCPILOT01"/>
      <ItemData ItemOID="IT.LB.DOMAIN" Value="LB"/>
      <ItemData ItemOID="IT.LB.USUBJID" Value="CDISC003"/>
      <ItemData ItemOID="IT.LB.LBSEQ" Value="20"/>
      <ItemData ItemOID="IT.LB.LBTESTCD" Value="KETONES"/>
      <ItemData ItemOID="IT.LB.LBTEST" Value="Ketones"/>
      <ItemData ItemOID="IT.LB.LBCAT" Value="URINALYSIS"/>
      <ItemData ItemOID="IT.LB.LBORRES" Value="0"/>
      <ItemData ItemOID="IT.LB.LBSTRESC" Value="0"/>
      <ItemData ItemOID="IT.LB.LBSTRESN" Value="0"/>
      <ItemData ItemOID="IT.LB.LBNRIND" Value="NORMAL"/>
      <ItemData ItemOID="IT.LB.LBLOBXFL" Value="Y"/>
      <ItemData ItemOID="IT.LB.VISITNUM" Value="1"/>
      <ItemData ItemOID="IT.LB.VISIT" Value="SCREENING 1"/>
      <ItemData ItemOID="IT.LB.EPOCH" Value="SCREENING"/>
      <ItemData ItemOID="IT.LB.LBDTC" Value="2013-08-20T12:27"/>
      <ItemData ItemOID="IT.LB.LBDY" Value="-9"/>
    </ItemGroupData>
    <ItemGroupData ItemGroupOID="IG.LB" data:ItemGroupDataSeq="32">
      <ItemData ItemOID="IT.LB.STUDYID" Value="CDISCPILOT01"/>
      <ItemData ItemOID="IT.LB.DOMAIN" Value="LB"/>
      <ItemData ItemOID="IT.LB.USUBJID" Value="CDISC003"/>
      <ItemData ItemOID="IT.LB.LBSEQ" Value="27"/>
      <ItemData ItemOID="IT.LB.LBTESTCD" Value="PH"/>
      <ItemData ItemOID="IT.LB.LBTEST" Value="pH"/>
      <ItemData ItemOID="IT.LB.LBCAT" Value="URINALYSIS"/>
      <ItemData ItemOID="IT.LB.LBORRES" Value="5"/>
      <ItemData ItemOID="IT.LB.LBORNRLO" Value="5"/>
      <ItemData ItemOID="IT.LB.LBORNRHI" Value="8"/>
      <ItemData ItemOID="IT.LB.LBSTRESC" Value="5"/>
      <ItemData ItemOID="IT.LB.LBSTRESN" Value="5"/>
      <ItemData ItemOID="IT.LB.LBSTNRLO" Value="5"/>
      <ItemData ItemOID="IT.LB.LBSTNRHI" Value="8"/>
      <ItemData ItemOID="IT.LB.LBNRIND" Value="NORMAL"/>
      <ItemData ItemOID="IT.LB.LBLOBXFL" Value="Y"/>
      <ItemData ItemOID="IT.LB.VISITNUM" Value="1"/>
      <ItemData ItemOID="IT.LB.VISIT" Value="SCREENING 1"/>
      <ItemData ItemOID="IT.LB.EPOCH" Value="SCREENING"/>
      <ItemData ItemOID="IT.LB.LBDTC" Value="2013-08-20T12:27"/>
      <ItemData ItemOID="IT.LB.LBDY" Value="-9"/>
    </ItemGroupData>
    <ItemGroupData ItemGroupOID="IG.LB" data:ItemGroupDataSeq="33">
      <ItemData ItemOID="IT.LB.STUDYID" Value="CDISCPILOT01"/>
      <ItemData ItemOID="IT.LB.DOMAIN" Value="LB"/>
      <ItemData ItemOID="IT.LB.USUBJID" Value="CDISC003"/>
      <ItemData ItemOID="IT.LB.LBSEQ" Value="32"/>
      <ItemData ItemOID="IT.LB.LBTESTCD" Value="SPGRAV"/>
      <ItemData ItemOID="IT.LB.LBTEST" Value="Specific Gravity"/>
      <ItemData ItemOID="IT.LB.LBCAT" Value="URINALYSIS"/>
      <ItemData ItemOID="IT.LB.LBORRES" Value="1.021"/>
      <ItemData ItemOID="IT.LB.LBORNRLO" Value="1.006"/>
      <ItemData ItemOID="IT.LB.LBORNRHI" Value="1.03"/>
      <ItemData ItemOID="IT.LB.LBSTRESC" Value="1.021"/>
      <ItemData ItemOID="IT.LB.LBSTRESN" Value="1.021"/>
      <ItemData ItemOID="IT.LB.LBSTNRLO" Value="1.006"/>
      <ItemData ItemOID="IT.LB.LBSTNRHI" Value="1.03"/>
      <ItemData ItemOID="IT.LB.LBNRIND" Value="NORMAL"/>
      <ItemData ItemOID="IT.LB.LBLOBXFL" Value="Y"/>
      <ItemData ItemOID="IT.LB.VISITNUM" Value="1"/>
      <ItemData ItemOID="IT.LB.VISIT" Value="SCREENING 1"/>
      <ItemData ItemOID="IT.LB.EPOCH" Value="SCREENING"/>
      <ItemData ItemOID="IT.LB.LBDTC" Value="2013-08-20T12:27"/>
      <ItemData ItemOID="IT.LB.LBDY" Value="-9"/>
    </ItemGroupData>
    <ItemGroupData ItemGroupOID="IG.LB" data:ItemGroupDataSeq="34">
      <ItemData ItemOID="IT.LB.STUDYID" Value="CDISCPILOT01"/>
      <ItemData ItemOID="IT.LB.DOMAIN" Value="LB"/>
      <ItemData ItemOID="IT.LB.USUBJID" Value="CDISC003"/>
      <ItemData ItemOID="IT.LB.LBSEQ" Value="33"/>
      <ItemData ItemOID="IT.LB.LBTESTCD" Value="TSH"/>
      <ItemData ItemOID="IT.LB.LBTEST" Value="Thyrotropin"/>
      <ItemData ItemOID="IT.LB.LBCAT" Value="OTHER"/>
      <ItemData ItemOID="IT.LB.LBORRES" Value="1.89"/>
      <ItemData ItemOID="IT.LB.LBORRESU" Value="mIU/L"/>
      <ItemData ItemOID="IT.LB.LBORNRLO" Value=".32"/>
      <ItemData ItemOID="IT.LB.LBORNRHI" Value="5"/>
      <ItemData ItemOID="IT.LB.LBSTRESC" Value="1.89"/>
      <ItemData ItemOID="IT.LB.LBSTRESN" Value="1.89"/>
      <ItemData ItemOID="IT.LB.LBSTRESU" Value="mU/L"/>
      <ItemData ItemOID="IT.LB.LBSTNRLO" Value="0.32"/>
      <ItemData ItemOID="IT.LB.LBSTNRHI" Value="5"/>
      <ItemData ItemOID="IT.LB.LBNRIND" Value="NORMAL"/>
      <ItemData ItemOID="IT.LB.LBLOBXFL" Value="Y"/>
      <ItemData ItemOID="IT.LB.VISITNUM" Value="1"/>
      <ItemData ItemOID="IT.LB.VISIT" Value="SCREENING 1"/>
      <ItemData ItemOID="IT.LB.EPOCH" Value="SCREENING"/>
      <ItemData ItemOID="IT.LB.LBDTC" Value="2013-08-20T12:27"/>
      <ItemData ItemOID="IT.LB.LBDY" Value="-9"/>
    </ItemGroupData>
    <ItemGroupData ItemGroupOID="IG.LB" data:ItemGroupDataSeq="35">
      <ItemData ItemOID="IT.LB.STUDYID" Value="CDISCPILOT01"/>
      <ItemData ItemOID="IT.LB.DOMAIN" Value="LB"/>
      <ItemData ItemOID="IT.LB.USUBJID" Value="CDISC003"/>
      <ItemData ItemOID="IT.LB.LBSEQ" Value="35"/>
      <ItemData ItemOID="IT.LB.LBTESTCD" Value="UROBIL"/>
      <ItemData ItemOID="IT.LB.LBTEST" Value="Urobilinogen"/>
      <ItemData ItemOID="IT.LB.LBCAT" Value="URINALYSIS"/>
      <ItemData ItemOID="IT.LB.LBORRES" Value="0"/>
      <ItemData ItemOID="IT.LB.LBSTRESC" Value="0"/>
      <ItemData ItemOID="IT.LB.LBSTRESN" Value="0"/>
      <ItemData ItemOID="IT.LB.LBNRIND" Value="NORMAL"/>
      <ItemData ItemOID="IT.LB.LBLOBXFL" Value="Y"/>
      <ItemData ItemOID="IT.LB.VISITNUM" Value="1"/>
      <ItemData ItemOID="IT.LB.VISIT" Value="SCREENING 1"/>
      <ItemData ItemOID="IT.LB.EPOCH" Value="SCREENING"/>
      <ItemData ItemOID="IT.LB.LBDTC" Value="2013-08-20T12:27"/>
      <ItemData ItemOID="IT.LB.LBDY" Value="-9"/>
    </ItemGroupData>
    <ItemGroupData ItemGroupOID="IG.LB" data:ItemGroupDataSeq="36">
      <ItemData ItemOID="IT.LB.STUDYID" Value="CDISCPILOT01"/>
      <ItemData ItemOID="IT.LB.DOMAIN" Value="LB"/>
      <ItemData ItemOID="IT.LB.USUBJID" Value="CDISC003"/>
      <ItemData ItemOID="IT.LB.LBSEQ" Value="36"/>
      <ItemData ItemOID="IT.LB.LBTESTCD" Value="VITB12"/>
      <ItemData ItemOID="IT.LB.LBTEST" Value="Vitamin B12"/>
      <ItemData ItemOID="IT.LB.LBCAT" Value="OTHER"/>
      <ItemData ItemOID="IT.LB.LBORRES" Value="714"/>
      <ItemData ItemOID="IT.LB.LBORRESU" Value="ng/L"/>
      <ItemData ItemOID="IT.LB.LBORNRLO" Value="200"/>
      <ItemData ItemOID="IT.LB.LBORNRHI" Value="900"/>
      <ItemData ItemOID="IT.LB.LBSTRESC" Value="526.7892"/>
      <ItemData ItemOID="IT.LB.LBSTRESN" Value="526.7892"/>
      <ItemData ItemOID="IT.LB.LBSTRESU" Value="pmol/L"/>
      <ItemData ItemOID="IT.LB.LBSTNRLO" Value="148"/>
      <ItemData ItemOID="IT.LB.LBSTNRHI" Value="664"/>
      <ItemData ItemOID="IT.LB.LBNRIND" Value="NORMAL"/>
      <ItemData ItemOID="IT.LB.LBLOBXFL" Value="Y"/>
      <ItemData ItemOID="IT.LB.VISITNUM" Value="1"/>
      <ItemData ItemOID="IT.LB.VISIT" Value="SCREENING 1"/>
      <ItemData ItemOID="IT.LB.EPOCH" Value="SCREENING"/>
      <ItemData ItemOID="IT.LB.LBDTC" Value="2013-08-20T12:27"/>
      <ItemData ItemOID="IT.LB.LBDY" Value="-9"/>
    </ItemGroupData>
    <ItemGroupData ItemGroupOID="IG.LB" data:ItemGroupDataSeq="37">
      <ItemData ItemOID="IT.LB.STUDYID" Value="CDISCPILOT01"/>
      <ItemData ItemOID="IT.LB.DOMAIN" Value="LB"/>
      <ItemData ItemOID="IT.LB.USUBJID" Value="CDISC003"/>
      <ItemData ItemOID="IT.LB.LBSEQ" Value="49"/>
      <ItemData ItemOID="IT.LB.LBTESTCD" Value="COLOR"/>
      <ItemData ItemOID="IT.LB.LBTEST" Value="Color"/>
      <ItemData ItemOID="IT.LB.LBCAT" Value="URINALYSIS"/>
      <ItemData ItemOID="IT.LB.LBORRES" Value="NORMAL"/>
      <ItemData ItemOID="IT.LB.LBSTRESC" Value="NORMAL"/>
      <ItemData ItemOID="IT.LB.LBNRIND" Value="NORMAL"/>
      <ItemData ItemOID="IT.LB.VISITNUM" Value="4"/>
      <ItemData ItemOID="IT.LB.VISIT" Value="WEEK 2"/>
      <ItemData ItemOID="IT.LB.EPOCH" Value="TREATMENT"/>
      <ItemData ItemOID="IT.LB.LBDTC" Value="2013-09-15T12:44"/>
      <ItemData ItemOID="IT.LB.LBDY" Value="18"/>
    </ItemGroupData>
    <ItemGroupData ItemGroupOID="IG.LB" data:ItemGroupDataSeq="38">
      <ItemData ItemOID="IT.LB.STUDYID" Value="CDISCPILOT01"/>
      <ItemData ItemOID="IT.LB.DOMAIN" Value="LB"/>
      <ItemData ItemOID="IT.LB.USUBJID" Value="CDISC003"/>
      <ItemData ItemOID="IT.LB.LBSEQ" Value="57"/>
      <ItemData ItemOID="IT.LB.LBTESTCD" Value="KETONES"/>
      <ItemData ItemOID="IT.LB.LBTEST" Value="Ketones"/>
      <ItemData ItemOID="IT.LB.LBCAT" Value="URINALYSIS"/>
      <ItemData ItemOID="IT.LB.LBORRES" Value="0"/>
      <ItemData ItemOID="IT.LB.LBSTRESC" Value="0"/>
      <ItemData ItemOID="IT.LB.LBSTRESN" Value="0"/>
      <ItemData ItemOID="IT.LB.LBNRIND" Value="NORMAL"/>
      <ItemData ItemOID="IT.LB.VISITNUM" Value="4"/>
      <ItemData ItemOID="IT.LB.VISIT" Value="WEEK 2"/>
      <ItemData ItemOID="IT.LB.EPOCH" Value="TREATMENT"/>
      <ItemData ItemOID="IT.LB.LBDTC" Value="2013-09-15T12:44"/>
      <ItemData ItemOID="IT.LB.LBDY" Value="18"/>
    </ItemGroupData>
    <ItemGroupData ItemGroupOID="IG.LB" data:ItemGroupDataSeq="39">
      <ItemData ItemOID="IT.LB.STUDYID" Value="CDISCPILOT01"/>
      <ItemData ItemOID="IT.LB.DOMAIN" Value="LB"/>
      <ItemData ItemOID="IT.LB.USUBJID" Value="CDISC003"/>
      <ItemData ItemOID="IT.LB.LBSEQ" Value="64"/>
      <ItemData ItemOID="IT.LB.LBTESTCD" Value="PH"/>
      <ItemData ItemOID="IT.LB.LBTEST" Value="pH"/>
      <ItemData ItemOID="IT.LB.LBCAT" Value="URINALYSIS"/>
      <ItemData ItemOID="IT.LB.LBORRES" Value="5"/>
      <ItemData ItemOID="IT.LB.LBORNRLO" Value="5"/>
      <ItemData ItemOID="IT.LB.LBORNRHI" Value="8"/>
      <ItemData ItemOID="IT.LB.LBSTRESC" Value="5"/>
      <ItemData ItemOID="IT.LB.LBSTRESN" Value="5"/>
      <ItemData ItemOID="IT.LB.LBSTNRLO" Value="5"/>
      <ItemData ItemOID="IT.LB.LBSTNRHI" Value="8"/>
      <ItemData ItemOID="IT.LB.LBNRIND" Value="NORMAL"/>
      <ItemData ItemOID="IT.LB.VISITNUM" Value="4"/>
      <ItemData ItemOID="IT.LB.VISIT" Value="WEEK 2"/>
      <ItemData ItemOID="IT.LB.EPOCH" Value="TREATMENT"/>
      <ItemData ItemOID="IT.LB.LBDTC" Value="2013-09-15T12:44"/>
      <ItemData ItemOID="IT.LB.LBDY" Value="18"/>
    </ItemGroupData>
    <ItemGroupData ItemGroupOID="IG.LB" data:ItemGroupDataSeq="40">
      <ItemData ItemOID="IT.LB.STUDYID" Value="CDISCPILOT01"/>
      <ItemData ItemOID="IT.LB.DOMAIN" Value="LB"/>
      <ItemData ItemOID="IT.LB.USUBJID" Value="CDISC003"/>
      <ItemData ItemOID="IT.LB.LBSEQ" Value="69"/>
      <ItemData ItemOID="IT.LB.LBTESTCD" Value="SPGRAV"/>
      <ItemData ItemOID="IT.LB.LBTEST" Value="Specific Gravity"/>
      <ItemData ItemOID="IT.LB.LBCAT" Value="URINALYSIS"/>
      <ItemData ItemOID="IT.LB.LBORRES" Value="1.021"/>
      <ItemData ItemOID="IT.LB.LBORNRLO" Value="1.006"/>
      <ItemData ItemOID="IT.LB.LBORNRHI" Value="1.03"/>
      <ItemData ItemOID="IT.LB.LBSTRESC" Value="1.021"/>
      <ItemData ItemOID="IT.LB.LBSTRESN" Value="1.021"/>
      <ItemData ItemOID="IT.LB.LBSTNRLO" Value="1.006"/>
      <ItemData ItemOID="IT.LB.LBSTNRHI" Value="1.03"/>
      <ItemData ItemOID="IT.LB.LBNRIND" Value="NORMAL"/>
      <ItemData ItemOID="IT.LB.VISITNUM" Value="4"/>
      <ItemData ItemOID="IT.LB.VISIT" Value="WEEK 2"/>
      <ItemData ItemOID="IT.LB.EPOCH" Value="TREATMENT"/>
      <ItemData ItemOID="IT.LB.LBDTC" Value="2013-09-15T12:44"/>
      <ItemData ItemOID="IT.LB.LBDY" Value="18"/>
    </ItemGroupData>
    <ItemGroupData ItemGroupOID="IG.LB" data:ItemGroupDataSeq="41">
      <ItemData ItemOID="IT.LB.STUDYID" Value="CDISCPILOT01"/>
      <ItemData ItemOID="IT.LB.DOMAIN" Value="LB"/>
      <ItemData ItemOID="IT.LB.USUBJID" Value="CDISC003"/>
      <ItemData ItemOID="IT.LB.LBSEQ" Value="71"/>
      <ItemData ItemOID="IT.LB.LBTESTCD" Value="UROBIL"/>
      <ItemData ItemOID="IT.LB.LBTEST" Value="Urobilinogen"/>
      <ItemData ItemOID="IT.LB.LBCAT" Value="URINALYSIS"/>
      <ItemData ItemOID="IT.LB.LBORRES" Value="0"/>
      <ItemData ItemOID="IT.LB.LBSTRESC" Value="0"/>
      <ItemData ItemOID="IT.LB.LBSTRESN" Value="0"/>
      <ItemData ItemOID="IT.LB.LBNRIND" Value="NORMAL"/>
      <ItemData ItemOID="IT.LB.VISITNUM" Value="4"/>
      <ItemData ItemOID="IT.LB.VISIT" Value="WEEK 2"/>
      <ItemData ItemOID="IT.LB.EPOCH" Value="TREATMENT"/>
      <ItemData ItemOID="IT.LB.LBDTC" Value="2013-09-15T12:44"/>
      <ItemData ItemOID="IT.LB.LBDY" Value="18"/>
    </ItemGroupData>
    <ItemGroupData ItemGroupOID="IG.LB" data:ItemGroupDataSeq="42">
      <ItemData ItemOID="IT.LB.STUDYID" Value="CDISCPILOT01"/>
      <ItemData ItemOID="IT.LB.DOMAIN" Value="LB"/>
      <ItemData ItemOID="IT.LB.USUBJID" Value="CDISC003"/>
      <ItemData ItemOID="IT.LB.LBSEQ" Value="174"/>
      <ItemData ItemOID="IT.LB.LBTESTCD" Value="COLOR"/>
      <ItemData ItemOID="IT.LB.LBTEST" Value="Color"/>
      <ItemData ItemOID="IT.LB.LBCAT" Value="URINALYSIS"/>
      <ItemData ItemOID="IT.LB.LBORRES" Value="NORMAL"/>
      <ItemData ItemOID="IT.LB.LBSTRESC" Value="NORMAL"/>
      <ItemData ItemOID="IT.LB.LBNRIND" Value="NORMAL"/>
      <ItemData ItemOID="IT.LB.VISITNUM" Value="9"/>
      <ItemData ItemOID="IT.LB.VISIT" Value="WEEK 12"/>
      <ItemData ItemOID="IT.LB.EPOCH" Value="TREATMENT"/>
      <ItemData ItemOID="IT.LB.LBDTC" Value="2013-11-05T13:54"/>
      <ItemData ItemOID="IT.LB.LBDY" Value="69"/>
    </ItemGroupData>
    <ItemGroupData ItemGroupOID="IG.LB" data:ItemGroupDataSeq="43">
      <ItemData ItemOID="IT.LB.STUDYID" Value="CDISCPILOT01"/>
      <ItemData ItemOID="IT.LB.DOMAIN" Value="LB"/>
      <ItemData ItemOID="IT.LB.USUBJID" Value="CDISC003"/>
      <ItemData ItemOID="IT.LB.LBSEQ" Value="182"/>
      <ItemData ItemOID="IT.LB.LBTESTCD" Value="KETONES"/>
      <ItemData ItemOID="IT.LB.LBTEST" Value="Ketones"/>
      <ItemData ItemOID="IT.LB.LBCAT" Value="URINALYSIS"/>
      <ItemData ItemOID="IT.LB.LBORRES" Value="0"/>
      <ItemData ItemOID="IT.LB.LBSTRESC" Value="0"/>
      <ItemData ItemOID="IT.LB.LBSTRESN" Value="0"/>
      <ItemData ItemOID="IT.LB.LBNRIND" Value="NORMAL"/>
      <ItemData ItemOID="IT.LB.VISITNUM" Value="9"/>
      <ItemData ItemOID="IT.LB.VISIT" Value="WEEK 12"/>
      <ItemData ItemOID="IT.LB.EPOCH" Value="TREATMENT"/>
      <ItemData ItemOID="IT.LB.LBDTC" Value="2013-11-05T13:54"/>
      <ItemData ItemOID="IT.LB.LBDY" Value="69"/>
    </ItemGroupData>
    <ItemGroupData ItemGroupOID="IG.LB" data:ItemGroupDataSeq="44">
      <ItemData ItemOID="IT.LB.STUDYID" Value="CDISCPILOT01"/>
      <ItemData ItemOID="IT.LB.DOMAIN" Value="LB"/>
      <ItemData ItemOID="IT.LB.USUBJID" Value="CDISC003"/>
      <ItemData ItemOID="IT.LB.LBSEQ" Value="189"/>
      <ItemData ItemOID="IT.LB.LBTESTCD" Value="PH"/>
      <ItemData ItemOID="IT.LB.LBTEST" Value="pH"/>
      <ItemData ItemOID="IT.LB.LBCAT" Value="URINALYSIS"/>
      <ItemData ItemOID="IT.LB.LBORRES" Value="5"/>
      <ItemData ItemOID="IT.LB.LBORNRLO" Value="5"/>
      <ItemData ItemOID="IT.LB.LBORNRHI" Value="8"/>
      <ItemData ItemOID="IT.LB.LBSTRESC" Value="5"/>
      <ItemData ItemOID="IT.LB.LBSTRESN" Value="5"/>
      <ItemData ItemOID="IT.LB.LBSTNRLO" Value="5"/>
      <ItemData ItemOID="IT.LB.LBSTNRHI" Value="8"/>
      <ItemData ItemOID="IT.LB.LBNRIND" Value="NORMAL"/>
      <ItemData ItemOID="IT.LB.VISITNUM" Value="9"/>
      <ItemData ItemOID="IT.LB.VISIT" Value="WEEK 12"/>
      <ItemData ItemOID="IT.LB.EPOCH" Value="TREATMENT"/>
      <ItemData ItemOID="IT.LB.LBDTC" Value="2013-11-05T13:54"/>
      <ItemData ItemOID="IT.LB.LBDY" Value="69"/>
    </ItemGroupData>
    <ItemGroupData ItemGroupOID="IG.LB" data:ItemGroupDataSeq="45">
      <ItemData ItemOID="IT.LB.STUDYID" Value="CDISCPILOT01"/>
      <ItemData ItemOID="IT.LB.DOMAIN" Value="LB"/>
      <ItemData ItemOID="IT.LB.USUBJID" Value="CDISC003"/>
      <ItemData ItemOID="IT.LB.LBSEQ" Value="194"/>
      <ItemData ItemOID="IT.LB.LBTESTCD" Value="SPGRAV"/>
      <ItemData ItemOID="IT.LB.LBTEST" Value="Specific Gravity"/>
      <ItemData ItemOID="IT.LB.LBCAT" Value="URINALYSIS"/>
      <ItemData ItemOID="IT.LB.LBORRES" Value="1.013"/>
      <ItemData ItemOID="IT.LB.LBORNRLO" Value="1.006"/>
      <ItemData ItemOID="IT.LB.LBORNRHI" Value="1.03"/>
      <ItemData ItemOID="IT.LB.LBSTRESC" Value="1.013"/>
      <ItemData ItemOID="IT.LB.LBSTRESN" Value="1.013"/>
      <ItemData ItemOID="IT.LB.LBSTNRLO" Value="1.006"/>
      <ItemData ItemOID="IT.LB.LBSTNRHI" Value="1.03"/>
      <ItemData ItemOID="IT.LB.LBNRIND" Value="NORMAL"/>
      <ItemData ItemOID="IT.LB.VISITNUM" Value="9"/>
      <ItemData ItemOID="IT.LB.VISIT" Value="WEEK 12"/>
      <ItemData ItemOID="IT.LB.EPOCH" Value="TREATMENT"/>
      <ItemData ItemOID="IT.LB.LBDTC" Value="2013-11-05T13:54"/>
      <ItemData ItemOID="IT.LB.LBDY" Value="69"/>
    </ItemGroupData>
    <ItemGroupData ItemGroupOID="IG.LB" data:ItemGroupDataSeq="46">
      <ItemData ItemOID="IT.LB.STUDYID" Value="CDISCPILOT01"/>
      <ItemData ItemOID="IT.LB.DOMAIN" Value="LB"/>
      <ItemData ItemOID="IT.LB.USUBJID" Value="CDISC003"/>
      <ItemData ItemOID="IT.LB.LBSEQ" Value="196"/>
      <ItemData ItemOID="IT.LB.LBTESTCD" Value="UROBIL"/>
      <ItemData ItemOID="IT.LB.LBTEST" Value="Urobilinogen"/>
      <ItemData ItemOID="IT.LB.LBCAT" Value="URINALYSIS"/>
      <ItemData ItemOID="IT.LB.LBORRES" Value="0"/>
      <ItemData ItemOID="IT.LB.LBSTRESC" Value="0"/>
      <ItemData ItemOID="IT.LB.LBSTRESN" Value="0"/>
      <ItemData ItemOID="IT.LB.LBNRIND" Value="NORMAL"/>
      <ItemData ItemOID="IT.LB.VISITNUM" Value="9"/>
      <ItemData ItemOID="IT.LB.VISIT" Value="WEEK 12"/>
      <ItemData ItemOID="IT.LB.EPOCH" Value="TREATMENT"/>
      <ItemData ItemOID="IT.LB.LBDTC" Value="2013-11-05T13:54"/>
      <ItemData ItemOID="IT.LB.LBDY" Value="69"/>
    </ItemGroupData>
    <ItemGroupData ItemGroupOID="IG.LB" data:ItemGroupDataSeq="47">
      <ItemData ItemOID="IT.LB.STUDYID" Value="CDISCPILOT01"/>
      <ItemData ItemOID="IT.LB.DOMAIN" Value="LB"/>
      <ItemData ItemOID="IT.LB.USUBJID" Value="CDISC004"/>
      <ItemData ItemOID="IT.LB.LBSEQ" Value="12"/>
      <ItemData ItemOID="IT.LB.LBTESTCD" Value="COLOR"/>
      <ItemData ItemOID="IT.LB.LBTEST" Value="Color"/>
      <ItemData ItemOID="IT.LB.LBCAT" Value="URINALYSIS"/>
      <ItemData ItemOID="IT.LB.LBORRES" Value="NORMAL"/>
      <ItemData ItemOID="IT.LB.LBSTRESC" Value="NORMAL"/>
      <ItemData ItemOID="IT.LB.LBNRIND" Value="NORMAL"/>
      <ItemData ItemOID="IT.LB.LBLOBXFL" Value="Y"/>
      <ItemData ItemOID="IT.LB.VISITNUM" Value="1"/>
      <ItemData ItemOID="IT.LB.VISIT" Value="SCREENING 1"/>
      <ItemData ItemOID="IT.LB.EPOCH" Value="SCREENING"/>
      <ItemData ItemOID="IT.LB.LBDTC" Value="2013-10-01T12:50"/>
      <ItemData ItemOID="IT.LB.LBDY" Value="-7"/>
    </ItemGroupData>
    <ItemGroupData ItemGroupOID="IG.LB" data:ItemGroupDataSeq="48">
      <ItemData ItemOID="IT.LB.STUDYID" Value="CDISCPILOT01"/>
      <ItemData ItemOID="IT.LB.DOMAIN" Value="LB"/>
      <ItemData ItemOID="IT.LB.USUBJID" Value="CDISC004"/>
      <ItemData ItemOID="IT.LB.LBSEQ" Value="20"/>
      <ItemData ItemOID="IT.LB.LBTESTCD" Value="KETONES"/>
      <ItemData ItemOID="IT.LB.LBTEST" Value="Ketones"/>
      <ItemData ItemOID="IT.LB.LBCAT" Value="URINALYSIS"/>
      <ItemData ItemOID="IT.LB.LBORRES" Value="0"/>
      <ItemData ItemOID="IT.LB.LBSTRESC" Value="0"/>
      <ItemData ItemOID="IT.LB.LBSTRESN" Value="0"/>
      <ItemData ItemOID="IT.LB.LBNRIND" Value="NORMAL"/>
      <ItemData ItemOID="IT.LB.LBLOBXFL" Value="Y"/>
      <ItemData ItemOID="IT.LB.VISITNUM" Value="1"/>
      <ItemData ItemOID="IT.LB.VISIT" Value="SCREENING 1"/>
      <ItemData ItemOID="IT.LB.EPOCH" Value="SCREENING"/>
      <ItemData ItemOID="IT.LB.LBDTC" Value="2013-10-01T12:50"/>
      <ItemData ItemOID="IT.LB.LBDY" Value="-7"/>
    </ItemGroupData>
    <ItemGroupData ItemGroupOID="IG.LB" data:ItemGroupDataSeq="49">
      <ItemData ItemOID="IT.LB.STUDYID" Value="CDISCPILOT01"/>
      <ItemData ItemOID="IT.LB.DOMAIN" Value="LB"/>
      <ItemData ItemOID="IT.LB.USUBJID" Value="CDISC004"/>
      <ItemData ItemOID="IT.LB.LBSEQ" Value="27"/>
      <ItemData ItemOID="IT.LB.LBTESTCD" Value="PH"/>
      <ItemData ItemOID="IT.LB.LBTEST" Value="pH"/>
      <ItemData ItemOID="IT.LB.LBCAT" Value="URINALYSIS"/>
      <ItemData ItemOID="IT.LB.LBORRES" Value="5"/>
      <ItemData ItemOID="IT.LB.LBORNRLO" Value="5"/>
      <ItemData ItemOID="IT.LB.LBORNRHI" Value="8"/>
      <ItemData ItemOID="IT.LB.LBSTRESC" Value="5"/>
      <ItemData ItemOID="IT.LB.LBSTRESN" Value="5"/>
      <ItemData ItemOID="IT.LB.LBSTNRLO" Value="5"/>
      <ItemData ItemOID="IT.LB.LBSTNRHI" Value="8"/>
      <ItemData ItemOID="IT.LB.LBNRIND" Value="NORMAL"/>
      <ItemData ItemOID="IT.LB.LBLOBXFL" Value="Y"/>
      <ItemData ItemOID="IT.LB.VISITNUM" Value="1"/>
      <ItemData ItemOID="IT.LB.VISIT" Value="SCREENING 1"/>
      <ItemData ItemOID="IT.LB.EPOCH" Value="SCREENING"/>
      <ItemData ItemOID="IT.LB.LBDTC" Value="2013-10-01T12:50"/>
      <ItemData ItemOID="IT.LB.LBDY" Value="-7"/>
    </ItemGroupData>
    <ItemGroupData ItemGroupOID="IG.LB" data:ItemGroupDataSeq="50">
      <ItemData ItemOID="IT.LB.STUDYID" Value="CDISCPILOT01"/>
      <ItemData ItemOID="IT.LB.DOMAIN" Value="LB"/>
      <ItemData ItemOID="IT.LB.USUBJID" Value="CDISC004"/>
      <ItemData ItemOID="IT.LB.LBSEQ" Value="32"/>
      <ItemData ItemOID="IT.LB.LBTESTCD" Value="SPGRAV"/>
      <ItemData ItemOID="IT.LB.LBTEST" Value="Specific Gravity"/>
      <ItemData ItemOID="IT.LB.LBCAT" Value="URINALYSIS"/>
      <ItemData ItemOID="IT.LB.LBORRES" Value="1.013"/>
      <ItemData ItemOID="IT.LB.LBORNRLO" Value="1.006"/>
      <ItemData ItemOID="IT.LB.LBORNRHI" Value="1.03"/>
      <ItemData ItemOID="IT.LB.LBSTRESC" Value="1.013"/>
      <ItemData ItemOID="IT.LB.LBSTRESN" Value="1.013"/>
      <ItemData ItemOID="IT.LB.LBSTNRLO" Value="1.006"/>
      <ItemData ItemOID="IT.LB.LBSTNRHI" Value="1.03"/>
      <ItemData ItemOID="IT.LB.LBNRIND" Value="NORMAL"/>
      <ItemData ItemOID="IT.LB.LBLOBXFL" Value="Y"/>
      <ItemData ItemOID="IT.LB.VISITNUM" Value="1"/>
      <ItemData ItemOID="IT.LB.VISIT" Value="SCREENING 1"/>
      <ItemData ItemOID="IT.LB.EPOCH" Value="SCREENING"/>
      <ItemData ItemOID="IT.LB.LBDTC" Value="2013-10-01T12:50"/>
      <ItemData ItemOID="IT.LB.LBDY" Value="-7"/>
    </ItemGroupData>
    <ItemGroupData ItemGroupOID="IG.LB" data:ItemGroupDataSeq="51">
      <ItemData ItemOID="IT.LB.STUDYID" Value="CDISCPILOT01"/>
      <ItemData ItemOID="IT.LB.DOMAIN" Value="LB"/>
      <ItemData ItemOID="IT.LB.USUBJID" Value="CDISC004"/>
      <ItemData ItemOID="IT.LB.LBSEQ" Value="33"/>
      <ItemData ItemOID="IT.LB.LBTESTCD" Value="TSH"/>
      <ItemData ItemOID="IT.LB.LBTEST" Value="Thyrotropin"/>
      <ItemData ItemOID="IT.LB.LBCAT" Value="OTHER"/>
      <ItemData ItemOID="IT.LB.LBORRES" Value=".94"/>
      <ItemData ItemOID="IT.LB.LBORRESU" Value="mIU/L"/>
      <ItemData ItemOID="IT.LB.LBORNRLO" Value=".32"/>
      <ItemData ItemOID="IT.LB.LBORNRHI" Value="5"/>
      <ItemData ItemOID="IT.LB.LBSTRESC" Value=".94"/>
      <ItemData ItemOID="IT.LB.LBSTRESN" Value="0.94"/>
      <ItemData ItemOID="IT.LB.LBSTRESU" Value="mU/L"/>
      <ItemData ItemOID="IT.LB.LBSTNRLO" Value="0.32"/>
      <ItemData ItemOID="IT.LB.LBSTNRHI" Value="5"/>
      <ItemData ItemOID="IT.LB.LBNRIND" Value="NORMAL"/>
      <ItemData ItemOID="IT.LB.LBLOBXFL" Value="Y"/>
      <ItemData ItemOID="IT.LB.VISITNUM" Value="1"/>
      <ItemData ItemOID="IT.LB.VISIT" Value="SCREENING 1"/>
      <ItemData ItemOID="IT.LB.EPOCH" Value="SCREENING"/>
      <ItemData ItemOID="IT.LB.LBDTC" Value="2013-10-01T12:50"/>
      <ItemData ItemOID="IT.LB.LBDY" Value="-7"/>
    </ItemGroupData>
    <ItemGroupData ItemGroupOID="IG.LB" data:ItemGroupDataSeq="52">
      <ItemData ItemOID="IT.LB.STUDYID" Value="CDISCPILOT01"/>
      <ItemData ItemOID="IT.LB.DOMAIN" Value="LB"/>
      <ItemData ItemOID="IT.LB.USUBJID" Value="CDISC004"/>
      <ItemData ItemOID="IT.LB.LBSEQ" Value="35"/>
      <ItemData ItemOID="IT.LB.LBTESTCD" Value="UROBIL"/>
      <ItemData ItemOID="IT.LB.LBTEST" Value="Urobilinogen"/>
      <ItemData ItemOID="IT.LB.LBCAT" Value="URINALYSIS"/>
      <ItemData ItemOID="IT.LB.LBORRES" Value="0"/>
      <ItemData ItemOID="IT.LB.LBSTRESC" Value="0"/>
      <ItemData ItemOID="IT.LB.LBSTRESN" Value="0"/>
      <ItemData ItemOID="IT.LB.LBNRIND" Value="NORMAL"/>
      <ItemData ItemOID="IT.LB.LBLOBXFL" Value="Y"/>
      <ItemData ItemOID="IT.LB.VISITNUM" Value="1"/>
      <ItemData ItemOID="IT.LB.VISIT" Value="SCREENING 1"/>
      <ItemData ItemOID="IT.LB.EPOCH" Value="SCREENING"/>
      <ItemData ItemOID="IT.LB.LBDTC" Value="2013-10-01T12:50"/>
      <ItemData ItemOID="IT.LB.LBDY" Value="-7"/>
    </ItemGroupData>
    <ItemGroupData ItemGroupOID="IG.LB" data:ItemGroupDataSeq="53">
      <ItemData ItemOID="IT.LB.STUDYID" Value="CDISCPILOT01"/>
      <ItemData ItemOID="IT.LB.DOMAIN" Value="LB"/>
      <ItemData ItemOID="IT.LB.USUBJID" Value="CDISC004"/>
      <ItemData ItemOID="IT.LB.LBSEQ" Value="36"/>
      <ItemData ItemOID="IT.LB.LBTESTCD" Value="VITB12"/>
      <ItemData ItemOID="IT.LB.LBTEST" Value="Vitamin B12"/>
      <ItemData ItemOID="IT.LB.LBCAT" Value="OTHER"/>
      <ItemData ItemOID="IT.LB.LBORRES" Value="302"/>
      <ItemData ItemOID="IT.LB.LBORRESU" Value="ng/L"/>
      <ItemData ItemOID="IT.LB.LBORNRLO" Value="200"/>
      <ItemData ItemOID="IT.LB.LBORNRHI" Value="900"/>
      <ItemData ItemOID="IT.LB.LBSTRESC" Value="222.8156"/>
      <ItemData ItemOID="IT.LB.LBSTRESN" Value="222.8156"/>
      <ItemData ItemOID="IT.LB.LBSTRESU" Value="pmol/L"/>
      <ItemData ItemOID="IT.LB.LBSTNRLO" Value="148"/>
      <ItemData ItemOID="IT.LB.LBSTNRHI" Value="664"/>
      <ItemData ItemOID="IT.LB.LBNRIND" Value="NORMAL"/>
      <ItemData ItemOID="IT.LB.LBLOBXFL" Value="Y"/>
      <ItemData ItemOID="IT.LB.VISITNUM" Value="1"/>
      <ItemData ItemOID="IT.LB.VISIT" Value="SCREENING 1"/>
      <ItemData ItemOID="IT.LB.EPOCH" Value="SCREENING"/>
      <ItemData ItemOID="IT.LB.LBDTC" Value="2013-10-01T12:50"/>
      <ItemData ItemOID="IT.LB.LBDY" Value="-7"/>
    </ItemGroupData>
    <ItemGroupData ItemGroupOID="IG.LB" data:ItemGroupDataSeq="54">
      <ItemData ItemOID="IT.LB.STUDYID" Value="CDISCPILOT01"/>
      <ItemData ItemOID="IT.LB.DOMAIN" Value="LB"/>
      <ItemData ItemOID="IT.LB.USUBJID" Value="CDISC004"/>
      <ItemData ItemOID="IT.LB.LBSEQ" Value="49"/>
      <ItemData ItemOID="IT.LB.LBTESTCD" Value="COLOR"/>
      <ItemData ItemOID="IT.LB.LBTEST" Value="Color"/>
      <ItemData ItemOID="IT.LB.LBCAT" Value="URINALYSIS"/>
      <ItemData ItemOID="IT.LB.LBORRES" Value="NORMAL"/>
      <ItemData ItemOID="IT.LB.LBSTRESC" Value="NORMAL"/>
      <ItemData ItemOID="IT.LB.LBNRIND" Value="NORMAL"/>
      <ItemData ItemOID="IT.LB.VISITNUM" Value="4"/>
      <ItemData ItemOID="IT.LB.VISIT" Value="WEEK 2"/>
      <ItemData ItemOID="IT.LB.EPOCH" Value="TREATMENT"/>
      <ItemData ItemOID="IT.LB.LBDTC" Value="2013-10-24T10:41"/>
      <ItemData ItemOID="IT.LB.LBDY" Value="17"/>
    </ItemGroupData>
    <ItemGroupData ItemGroupOID="IG.LB" data:ItemGroupDataSeq="55">
      <ItemData ItemOID="IT.LB.STUDYID" Value="CDISCPILOT01"/>
      <ItemData ItemOID="IT.LB.DOMAIN" Value="LB"/>
      <ItemData ItemOID="IT.LB.USUBJID" Value="CDISC004"/>
      <ItemData ItemOID="IT.LB.LBSEQ" Value="57"/>
      <ItemData ItemOID="IT.LB.LBTESTCD" Value="KETONES"/>
      <ItemData ItemOID="IT.LB.LBTEST" Value="Ketones"/>
      <ItemData ItemOID="IT.LB.LBCAT" Value="URINALYSIS"/>
      <ItemData ItemOID="IT.LB.LBORRES" Value="0"/>
      <ItemData ItemOID="IT.LB.LBSTRESC" Value="0"/>
      <ItemData ItemOID="IT.LB.LBSTRESN" Value="0"/>
      <ItemData ItemOID="IT.LB.LBNRIND" Value="NORMAL"/>
      <ItemData ItemOID="IT.LB.VISITNUM" Value="4"/>
      <ItemData ItemOID="IT.LB.VISIT" Value="WEEK 2"/>
      <ItemData ItemOID="IT.LB.EPOCH" Value="TREATMENT"/>
      <ItemData ItemOID="IT.LB.LBDTC" Value="2013-10-24T10:41"/>
      <ItemData ItemOID="IT.LB.LBDY" Value="17"/>
    </ItemGroupData>
    <ItemGroupData ItemGroupOID="IG.LB" data:ItemGroupDataSeq="56">
      <ItemData ItemOID="IT.LB.STUDYID" Value="CDISCPILOT01"/>
      <ItemData ItemOID="IT.LB.DOMAIN" Value="LB"/>
      <ItemData ItemOID="IT.LB.USUBJID" Value="CDISC004"/>
      <ItemData ItemOID="IT.LB.LBSEQ" Value="64"/>
      <ItemData ItemOID="IT.LB.LBTESTCD" Value="PH"/>
      <ItemData ItemOID="IT.LB.LBTEST" Value="pH"/>
      <ItemData ItemOID="IT.LB.LBCAT" Value="URINALYSIS"/>
      <ItemData ItemOID="IT.LB.LBORRES" Value="5"/>
      <ItemData ItemOID="IT.LB.LBORNRLO" Value="5"/>
      <ItemData ItemOID="IT.LB.LBORNRHI" Value="8"/>
      <ItemData ItemOID="IT.LB.LBSTRESC" Value="5"/>
      <ItemData ItemOID="IT.LB.LBSTRESN" Value="5"/>
      <ItemData ItemOID="IT.LB.LBSTNRLO" Value="5"/>
      <ItemData ItemOID="IT.LB.LBSTNRHI" Value="8"/>
      <ItemData ItemOID="IT.LB.LBNRIND" Value="NORMAL"/>
      <ItemData ItemOID="IT.LB.VISITNUM" Value="4"/>
      <ItemData ItemOID="IT.LB.VISIT" Value="WEEK 2"/>
      <ItemData ItemOID="IT.LB.EPOCH" Value="TREATMENT"/>
      <ItemData ItemOID="IT.LB.LBDTC" Value="2013-10-24T10:41"/>
      <ItemData ItemOID="IT.LB.LBDY" Value="17"/>
    </ItemGroupData>
    <ItemGroupData ItemGroupOID="IG.LB" data:ItemGroupDataSeq="57">
      <ItemData ItemOID="IT.LB.STUDYID" Value="CDISCPILOT01"/>
      <ItemData ItemOID="IT.LB.DOMAIN" Value="LB"/>
      <ItemData ItemOID="IT.LB.USUBJID" Value="CDISC004"/>
      <ItemData ItemOID="IT.LB.LBSEQ" Value="69"/>
      <ItemData ItemOID="IT.LB.LBTESTCD" Value="SPGRAV"/>
      <ItemData ItemOID="IT.LB.LBTEST" Value="Specific Gravity"/>
      <ItemData ItemOID="IT.LB.LBCAT" Value="URINALYSIS"/>
      <ItemData ItemOID="IT.LB.LBORRES" Value="1.015"/>
      <ItemData ItemOID="IT.LB.LBORNRLO" Value="1.006"/>
      <ItemData ItemOID="IT.LB.LBORNRHI" Value="1.03"/>
      <ItemData ItemOID="IT.LB.LBSTRESC" Value="1.015"/>
      <ItemData ItemOID="IT.LB.LBSTRESN" Value="1.015"/>
      <ItemData ItemOID="IT.LB.LBSTNRLO" Value="1.006"/>
      <ItemData ItemOID="IT.LB.LBSTNRHI" Value="1.03"/>
      <ItemData ItemOID="IT.LB.LBNRIND" Value="NORMAL"/>
      <ItemData ItemOID="IT.LB.VISITNUM" Value="4"/>
      <ItemData ItemOID="IT.LB.VISIT" Value="WEEK 2"/>
      <ItemData ItemOID="IT.LB.EPOCH" Value="TREATMENT"/>
      <ItemData ItemOID="IT.LB.LBDTC" Value="2013-10-24T10:41"/>
      <ItemData ItemOID="IT.LB.LBDY" Value="17"/>
    </ItemGroupData>
    <ItemGroupData ItemGroupOID="IG.LB" data:ItemGroupDataSeq="58">
      <ItemData ItemOID="IT.LB.STUDYID" Value="CDISCPILOT01"/>
      <ItemData ItemOID="IT.LB.DOMAIN" Value="LB"/>
      <ItemData ItemOID="IT.LB.USUBJID" Value="CDISC004"/>
      <ItemData ItemOID="IT.LB.LBSEQ" Value="71"/>
      <ItemData ItemOID="IT.LB.LBTESTCD" Value="UROBIL"/>
      <ItemData ItemOID="IT.LB.LBTEST" Value="Urobilinogen"/>
      <ItemData ItemOID="IT.LB.LBCAT" Value="URINALYSIS"/>
      <ItemData ItemOID="IT.LB.LBORRES" Value="0"/>
      <ItemData ItemOID="IT.LB.LBSTRESC" Value="0"/>
      <ItemData ItemOID="IT.LB.LBSTRESN" Value="0"/>
      <ItemData ItemOID="IT.LB.LBNRIND" Value="NORMAL"/>
      <ItemData ItemOID="IT.LB.VISITNUM" Value="4"/>
      <ItemData ItemOID="IT.LB.VISIT" Value="WEEK 2"/>
      <ItemData ItemOID="IT.LB.EPOCH" Value="TREATMENT"/>
      <ItemData ItemOID="IT.LB.LBDTC" Value="2013-10-24T10:41"/>
      <ItemData ItemOID="IT.LB.LBDY" Value="17"/>
    </ItemGroupData>
    <ItemGroupData ItemGroupOID="IG.LB" data:ItemGroupDataSeq="59">
      <ItemData ItemOID="IT.LB.STUDYID" Value="CDISCPILOT01"/>
      <ItemData ItemOID="IT.LB.DOMAIN" Value="LB"/>
      <ItemData ItemOID="IT.LB.USUBJID" Value="CDISC004"/>
      <ItemData ItemOID="IT.LB.LBSEQ" Value="174"/>
      <ItemData ItemOID="IT.LB.LBTESTCD" Value="COLOR"/>
      <ItemData ItemOID="IT.LB.LBTEST" Value="Color"/>
      <ItemData ItemOID="IT.LB.LBCAT" Value="URINALYSIS"/>
      <ItemData ItemOID="IT.LB.LBORRES" Value="NORMAL"/>
      <ItemData ItemOID="IT.LB.LBSTRESC" Value="NORMAL"/>
      <ItemData ItemOID="IT.LB.LBNRIND" Value="NORMAL"/>
      <ItemData ItemOID="IT.LB.VISITNUM" Value="9"/>
      <ItemData ItemOID="IT.LB.VISIT" Value="WEEK 12"/>
      <ItemData ItemOID="IT.LB.EPOCH" Value="TREATMENT"/>
      <ItemData ItemOID="IT.LB.LBDTC" Value="2013-12-31T15:07"/>
      <ItemData ItemOID="IT.LB.LBDY" Value="85"/>
    </ItemGroupData>
    <ItemGroupData ItemGroupOID="IG.LB" data:ItemGroupDataSeq="60">
      <ItemData ItemOID="IT.LB.STUDYID" Value="CDISCPILOT01"/>
      <ItemData ItemOID="IT.LB.DOMAIN" Value="LB"/>
      <ItemData ItemOID="IT.LB.USUBJID" Value="CDISC004"/>
      <ItemData ItemOID="IT.LB.LBSEQ" Value="182"/>
      <ItemData ItemOID="IT.LB.LBTESTCD" Value="KETONES"/>
      <ItemData ItemOID="IT.LB.LBTEST" Value="Ketones"/>
      <ItemData ItemOID="IT.LB.LBCAT" Value="URINALYSIS"/>
      <ItemData ItemOID="IT.LB.LBORRES" Value="0"/>
      <ItemData ItemOID="IT.LB.LBSTRESC" Value="0"/>
      <ItemData ItemOID="IT.LB.LBSTRESN" Value="0"/>
      <ItemData ItemOID="IT.LB.LBNRIND" Value="NORMAL"/>
      <ItemData ItemOID="IT.LB.VISITNUM" Value="9"/>
      <ItemData ItemOID="IT.LB.VISIT" Value="WEEK 12"/>
      <ItemData ItemOID="IT.LB.EPOCH" Value="TREATMENT"/>
      <ItemData ItemOID="IT.LB.LBDTC" Value="2013-12-31T15:07"/>
      <ItemData ItemOID="IT.LB.LBDY" Value="85"/>
    </ItemGroupData>
    <ItemGroupData ItemGroupOID="IG.LB" data:ItemGroupDataSeq="61">
      <ItemData ItemOID="IT.LB.STUDYID" Value="CDISCPILOT01"/>
      <ItemData ItemOID="IT.LB.DOMAIN" Value="LB"/>
      <ItemData ItemOID="IT.LB.USUBJID" Value="CDISC004"/>
      <ItemData ItemOID="IT.LB.LBSEQ" Value="189"/>
      <ItemData ItemOID="IT.LB.LBTESTCD" Value="PH"/>
      <ItemData ItemOID="IT.LB.LBTEST" Value="pH"/>
      <ItemData ItemOID="IT.LB.LBCAT" Value="URINALYSIS"/>
      <ItemData ItemOID="IT.LB.LBORRES" Value="5"/>
      <ItemData ItemOID="IT.LB.LBORNRLO" Value="5"/>
      <ItemData ItemOID="IT.LB.LBORNRHI" Value="8"/>
      <ItemData ItemOID="IT.LB.LBSTRESC" Value="5"/>
      <ItemData ItemOID="IT.LB.LBSTRESN" Value="5"/>
      <ItemData ItemOID="IT.LB.LBSTNRLO" Value="5"/>
      <ItemData ItemOID="IT.LB.LBSTNRHI" Value="8"/>
      <ItemData ItemOID="IT.LB.LBNRIND" Value="NORMAL"/>
      <ItemData ItemOID="IT.LB.VISITNUM" Value="9"/>
      <ItemData ItemOID="IT.LB.VISIT" Value="WEEK 12"/>
      <ItemData ItemOID="IT.LB.EPOCH" Value="TREATMENT"/>
      <ItemData ItemOID="IT.LB.LBDTC" Value="2013-12-31T15:07"/>
      <ItemData ItemOID="IT.LB.LBDY" Value="85"/>
    </ItemGroupData>
    <ItemGroupData ItemGroupOID="IG.LB" data:ItemGroupDataSeq="62">
      <ItemData ItemOID="IT.LB.STUDYID" Value="CDISCPILOT01"/>
      <ItemData ItemOID="IT.LB.DOMAIN" Value="LB"/>
      <ItemData ItemOID="IT.LB.USUBJID" Value="CDISC004"/>
      <ItemData ItemOID="IT.LB.LBSEQ" Value="194"/>
      <ItemData ItemOID="IT.LB.LBTESTCD" Value="SPGRAV"/>
      <ItemData ItemOID="IT.LB.LBTEST" Value="Specific Gravity"/>
      <ItemData ItemOID="IT.LB.LBCAT" Value="URINALYSIS"/>
      <ItemData ItemOID="IT.LB.LBORRES" Value="1.007"/>
      <ItemData ItemOID="IT.LB.LBORNRLO" Value="1.006"/>
      <ItemData ItemOID="IT.LB.LBORNRHI" Value="1.03"/>
      <ItemData ItemOID="IT.LB.LBSTRESC" Value="1.007"/>
      <ItemData ItemOID="IT.LB.LBSTRESN" Value="1.007"/>
      <ItemData ItemOID="IT.LB.LBSTNRLO" Value="1.006"/>
      <ItemData ItemOID="IT.LB.LBSTNRHI" Value="1.03"/>
      <ItemData ItemOID="IT.LB.LBNRIND" Value="NORMAL"/>
      <ItemData ItemOID="IT.LB.VISITNUM" Value="9"/>
      <ItemData ItemOID="IT.LB.VISIT" Value="WEEK 12"/>
      <ItemData ItemOID="IT.LB.EPOCH" Value="TREATMENT"/>
      <ItemData ItemOID="IT.LB.LBDTC" Value="2013-12-31T15:07"/>
      <ItemData ItemOID="IT.LB.LBDY" Value="85"/>
    </ItemGroupData>
    <ItemGroupData ItemGroupOID="IG.LB" data:ItemGroupDataSeq="63">
      <ItemData ItemOID="IT.LB.STUDYID" Value="CDISCPILOT01"/>
      <ItemData ItemOID="IT.LB.DOMAIN" Value="LB"/>
      <ItemData ItemOID="IT.LB.USUBJID" Value="CDISC004"/>
      <ItemData ItemOID="IT.LB.LBSEQ" Value="196"/>
      <ItemData ItemOID="IT.LB.LBTESTCD" Value="UROBIL"/>
      <ItemData ItemOID="IT.LB.LBTEST" Value="Urobilinogen"/>
      <ItemData ItemOID="IT.LB.LBCAT" Value="URINALYSIS"/>
      <ItemData ItemOID="IT.LB.LBORRES" Value="0"/>
      <ItemData ItemOID="IT.LB.LBSTRESC" Value="0"/>
      <ItemData ItemOID="IT.LB.LBSTRESN" Value="0"/>
      <ItemData ItemOID="IT.LB.LBNRIND" Value="NORMAL"/>
      <ItemData ItemOID="IT.LB.VISITNUM" Value="9"/>
      <ItemData ItemOID="IT.LB.VISIT" Value="WEEK 12"/>
      <ItemData ItemOID="IT.LB.EPOCH" Value="TREATMENT"/>
      <ItemData ItemOID="IT.LB.LBDTC" Value="2013-12-31T15:07"/>
      <ItemData ItemOID="IT.LB.LBDY" Value="85"/>
    </ItemGroupData>
    <ItemGroupData ItemGroupOID="IG.LB" data:ItemGroupDataSeq="64">
      <ItemData ItemOID="IT.LB.STUDYID" Value="CDISCPILOT01"/>
      <ItemData ItemOID="IT.LB.DOMAIN" Value="LB"/>
      <ItemData ItemOID="IT.LB.USUBJID" Value="CDISC004"/>
      <ItemData ItemOID="IT.LB.LBSEQ" Value="269"/>
      <ItemData ItemOID="IT.LB.LBTESTCD" Value="COLOR"/>
      <ItemData ItemOID="IT.LB.LBTEST" Value="Color"/>
      <ItemData ItemOID="IT.LB.LBCAT" Value="URINALYSIS"/>
      <ItemData ItemOID="IT.LB.LBORRES" Value="NORMAL"/>
      <ItemData ItemOID="IT.LB.LBSTRESC" Value="NORMAL"/>
      <ItemData ItemOID="IT.LB.LBNRIND" Value="NORMAL"/>
      <ItemData ItemOID="IT.LB.VISITNUM" Value="12"/>
      <ItemData ItemOID="IT.LB.VISIT" Value="WEEK 24"/>
      <ItemData ItemOID="IT.LB.EPOCH" Value="TREATMENT"/>
      <ItemData ItemOID="IT.LB.LBDTC" Value="2014-03-18T14:12"/>
      <ItemData ItemOID="IT.LB.LBDY" Value="162"/>
    </ItemGroupData>
    <ItemGroupData ItemGroupOID="IG.LB" data:ItemGroupDataSeq="65">
      <ItemData ItemOID="IT.LB.STUDYID" Value="CDISCPILOT01"/>
      <ItemData ItemOID="IT.LB.DOMAIN" Value="LB"/>
      <ItemData ItemOID="IT.LB.USUBJID" Value="CDISC004"/>
      <ItemData ItemOID="IT.LB.LBSEQ" Value="277"/>
      <ItemData ItemOID="IT.LB.LBTESTCD" Value="KETONES"/>
      <ItemData ItemOID="IT.LB.LBTEST" Value="Ketones"/>
      <ItemData ItemOID="IT.LB.LBCAT" Value="URINALYSIS"/>
      <ItemData ItemOID="IT.LB.LBORRES" Value="0"/>
      <ItemData ItemOID="IT.LB.LBSTRESC" Value="0"/>
      <ItemData ItemOID="IT.LB.LBSTRESN" Value="0"/>
      <ItemData ItemOID="IT.LB.LBNRIND" Value="NORMAL"/>
      <ItemData ItemOID="IT.LB.VISITNUM" Value="12"/>
      <ItemData ItemOID="IT.LB.VISIT" Value="WEEK 24"/>
      <ItemData ItemOID="IT.LB.EPOCH" Value="TREATMENT"/>
      <ItemData ItemOID="IT.LB.LBDTC" Value="2014-03-18T14:12"/>
      <ItemData ItemOID="IT.LB.LBDY" Value="162"/>
    </ItemGroupData>
    <ItemGroupData ItemGroupOID="IG.LB" data:ItemGroupDataSeq="66">
      <ItemData ItemOID="IT.LB.STUDYID" Value="CDISCPILOT01"/>
      <ItemData ItemOID="IT.LB.DOMAIN" Value="LB"/>
      <ItemData ItemOID="IT.LB.USUBJID" Value="CDISC004"/>
      <ItemData ItemOID="IT.LB.LBSEQ" Value="284"/>
      <ItemData ItemOID="IT.LB.LBTESTCD" Value="PH"/>
      <ItemData ItemOID="IT.LB.LBTEST" Value="pH"/>
      <ItemData ItemOID="IT.LB.LBCAT" Value="URINALYSIS"/>
      <ItemData ItemOID="IT.LB.LBORRES" Value="5"/>
      <ItemData ItemOID="IT.LB.LBORNRLO" Value="5"/>
      <ItemData ItemOID="IT.LB.LBORNRHI" Value="8"/>
      <ItemData ItemOID="IT.LB.LBSTRESC" Value="5"/>
      <ItemData ItemOID="IT.LB.LBSTRESN" Value="5"/>
      <ItemData ItemOID="IT.LB.LBSTNRLO" Value="5"/>
      <ItemData ItemOID="IT.LB.LBSTNRHI" Value="8"/>
      <ItemData ItemOID="IT.LB.LBNRIND" Value="NORMAL"/>
      <ItemData ItemOID="IT.LB.VISITNUM" Value="12"/>
      <ItemData ItemOID="IT.LB.VISIT" Value="WEEK 24"/>
      <ItemData ItemOID="IT.LB.EPOCH" Value="TREATMENT"/>
      <ItemData ItemOID="IT.LB.LBDTC" Value="2014-03-18T14:12"/>
      <ItemData ItemOID="IT.LB.LBDY" Value="162"/>
    </ItemGroupData>
    <ItemGroupData ItemGroupOID="IG.LB" data:ItemGroupDataSeq="67">
      <ItemData ItemOID="IT.LB.STUDYID" Value="CDISCPILOT01"/>
      <ItemData ItemOID="IT.LB.DOMAIN" Value="LB"/>
      <ItemData ItemOID="IT.LB.USUBJID" Value="CDISC004"/>
      <ItemData ItemOID="IT.LB.LBSEQ" Value="289"/>
      <ItemData ItemOID="IT.LB.LBTESTCD" Value="SPGRAV"/>
      <ItemData ItemOID="IT.LB.LBTEST" Value="Specific Gravity"/>
      <ItemData ItemOID="IT.LB.LBCAT" Value="URINALYSIS"/>
      <ItemData ItemOID="IT.LB.LBORRES" Value="1.007"/>
      <ItemData ItemOID="IT.LB.LBORNRLO" Value="1.006"/>
      <ItemData ItemOID="IT.LB.LBORNRHI" Value="1.03"/>
      <ItemData ItemOID="IT.LB.LBSTRESC" Value="1.007"/>
      <ItemData ItemOID="IT.LB.LBSTRESN" Value="1.007"/>
      <ItemData ItemOID="IT.LB.LBSTNRLO" Value="1.006"/>
      <ItemData ItemOID="IT.LB.LBSTNRHI" Value="1.03"/>
      <ItemData ItemOID="IT.LB.LBNRIND" Value="NORMAL"/>
      <ItemData ItemOID="IT.LB.VISITNUM" Value="12"/>
      <ItemData ItemOID="IT.LB.VISIT" Value="WEEK 24"/>
      <ItemData ItemOID="IT.LB.EPOCH" Value="TREATMENT"/>
      <ItemData ItemOID="IT.LB.LBDTC" Value="2014-03-18T14:12"/>
      <ItemData ItemOID="IT.LB.LBDY" Value="162"/>
    </ItemGroupData>
    <ItemGroupData ItemGroupOID="IG.LB" data:ItemGroupDataSeq="68">
      <ItemData ItemOID="IT.LB.STUDYID" Value="CDISCPILOT01"/>
      <ItemData ItemOID="IT.LB.DOMAIN" Value="LB"/>
      <ItemData ItemOID="IT.LB.USUBJID" Value="CDISC004"/>
      <ItemData ItemOID="IT.LB.LBSEQ" Value="291"/>
      <ItemData ItemOID="IT.LB.LBTESTCD" Value="UROBIL"/>
      <ItemData ItemOID="IT.LB.LBTEST" Value="Urobilinogen"/>
      <ItemData ItemOID="IT.LB.LBCAT" Value="URINALYSIS"/>
      <ItemData ItemOID="IT.LB.LBORRES" Value="0"/>
      <ItemData ItemOID="IT.LB.LBSTRESC" Value="0"/>
      <ItemData ItemOID="IT.LB.LBSTRESN" Value="0"/>
      <ItemData ItemOID="IT.LB.LBNRIND" Value="NORMAL"/>
      <ItemData ItemOID="IT.LB.VISITNUM" Value="12"/>
      <ItemData ItemOID="IT.LB.VISIT" Value="WEEK 24"/>
      <ItemData ItemOID="IT.LB.EPOCH" Value="TREATMENT"/>
      <ItemData ItemOID="IT.LB.LBDTC" Value="2014-03-18T14:12"/>
      <ItemData ItemOID="IT.LB.LBDY" Value="162"/>
    </ItemGroupData>
    <ItemGroupData ItemGroupOID="IG.LB" data:ItemGroupDataSeq="69">
      <ItemData ItemOID="IT.LB.STUDYID" Value="CDISCPILOT01"/>
      <ItemData ItemOID="IT.LB.DOMAIN" Value="LB"/>
      <ItemData ItemOID="IT.LB.USUBJID" Value="CDISC005"/>
      <ItemData ItemOID="IT.LB.LBSEQ" Value="12"/>
      <ItemData ItemOID="IT.LB.LBTESTCD" Value="COLOR"/>
      <ItemData ItemOID="IT.LB.LBTEST" Value="Color"/>
      <ItemData ItemOID="IT.LB.LBCAT" Value="URINALYSIS"/>
      <ItemData ItemOID="IT.LB.LBORRES" Value="NORMAL"/>
      <ItemData ItemOID="IT.LB.LBSTRESC" Value="NORMAL"/>
      <ItemData ItemOID="IT.LB.LBNRIND" Value="NORMAL"/>
      <ItemData ItemOID="IT.LB.LBLOBXFL" Value="Y"/>
      <ItemData ItemOID="IT.LB.VISITNUM" Value="1"/>
      <ItemData ItemOID="IT.LB.VISIT" Value="SCREENING 1"/>
      <ItemData ItemOID="IT.LB.EPOCH" Value="SCREENING"/>
      <ItemData ItemOID="IT.LB.LBDTC" Value="2013-01-22T11:43"/>
      <ItemData ItemOID="IT.LB.LBDY" Value="-13"/>
    </ItemGroupData>
    <ItemGroupData ItemGroupOID="IG.LB" data:ItemGroupDataSeq="70">
      <ItemData ItemOID="IT.LB.STUDYID" Value="CDISCPILOT01"/>
      <ItemData ItemOID="IT.LB.DOMAIN" Value="LB"/>
      <ItemData ItemOID="IT.LB.USUBJID" Value="CDISC005"/>
      <ItemData ItemOID="IT.LB.LBSEQ" Value="20"/>
      <ItemData ItemOID="IT.LB.LBTESTCD" Value="KETONES"/>
      <ItemData ItemOID="IT.LB.LBTEST" Value="Ketones"/>
      <ItemData ItemOID="IT.LB.LBCAT" Value="URINALYSIS"/>
      <ItemData ItemOID="IT.LB.LBORRES" Value="0"/>
      <ItemData ItemOID="IT.LB.LBSTRESC" Value="0"/>
      <ItemData ItemOID="IT.LB.LBSTRESN" Value="0"/>
      <ItemData ItemOID="IT.LB.LBNRIND" Value="NORMAL"/>
      <ItemData ItemOID="IT.LB.LBLOBXFL" Value="Y"/>
      <ItemData ItemOID="IT.LB.VISITNUM" Value="1"/>
      <ItemData ItemOID="IT.LB.VISIT" Value="SCREENING 1"/>
      <ItemData ItemOID="IT.LB.EPOCH" Value="SCREENING"/>
      <ItemData ItemOID="IT.LB.LBDTC" Value="2013-01-22T11:43"/>
      <ItemData ItemOID="IT.LB.LBDY" Value="-13"/>
    </ItemGroupData>
    <ItemGroupData ItemGroupOID="IG.LB" data:ItemGroupDataSeq="71">
      <ItemData ItemOID="IT.LB.STUDYID" Value="CDISCPILOT01"/>
      <ItemData ItemOID="IT.LB.DOMAIN" Value="LB"/>
      <ItemData ItemOID="IT.LB.USUBJID" Value="CDISC005"/>
      <ItemData ItemOID="IT.LB.LBSEQ" Value="27"/>
      <ItemData ItemOID="IT.LB.LBTESTCD" Value="PH"/>
      <ItemData ItemOID="IT.LB.LBTEST" Value="pH"/>
      <ItemData ItemOID="IT.LB.LBCAT" Value="URINALYSIS"/>
      <ItemData ItemOID="IT.LB.LBORRES" Value="6"/>
      <ItemData ItemOID="IT.LB.LBORNRLO" Value="5"/>
      <ItemData ItemOID="IT.LB.LBORNRHI" Value="8"/>
      <ItemData ItemOID="IT.LB.LBSTRESC" Value="6"/>
      <ItemData ItemOID="IT.LB.LBSTRESN" Value="6"/>
      <ItemData ItemOID="IT.LB.LBSTNRLO" Value="5"/>
      <ItemData ItemOID="IT.LB.LBSTNRHI" Value="8"/>
      <ItemData ItemOID="IT.LB.LBNRIND" Value="NORMAL"/>
      <ItemData ItemOID="IT.LB.LBLOBXFL" Value="Y"/>
      <ItemData ItemOID="IT.LB.VISITNUM" Value="1"/>
      <ItemData ItemOID="IT.LB.VISIT" Value="SCREENING 1"/>
      <ItemData ItemOID="IT.LB.EPOCH" Value="SCREENING"/>
      <ItemData ItemOID="IT.LB.LBDTC" Value="2013-01-22T11:43"/>
      <ItemData ItemOID="IT.LB.LBDY" Value="-13"/>
    </ItemGroupData>
    <ItemGroupData ItemGroupOID="IG.LB" data:ItemGroupDataSeq="72">
      <ItemData ItemOID="IT.LB.STUDYID" Value="CDISCPILOT01"/>
      <ItemData ItemOID="IT.LB.DOMAIN" Value="LB"/>
      <ItemData ItemOID="IT.LB.USUBJID" Value="CDISC005"/>
      <ItemData ItemOID="IT.LB.LBSEQ" Value="32"/>
      <ItemData ItemOID="IT.LB.LBTESTCD" Value="SPGRAV"/>
      <ItemData ItemOID="IT.LB.LBTEST" Value="Specific Gravity"/>
      <ItemData ItemOID="IT.LB.LBCAT" Value="URINALYSIS"/>
      <ItemData ItemOID="IT.LB.LBORRES" Value="1.011"/>
      <ItemData ItemOID="IT.LB.LBORNRLO" Value="1.006"/>
      <ItemData ItemOID="IT.LB.LBORNRHI" Value="1.03"/>
      <ItemData ItemOID="IT.LB.LBSTRESC" Value="1.011"/>
      <ItemData ItemOID="IT.LB.LBSTRESN" Value="1.011"/>
      <ItemData ItemOID="IT.LB.LBSTNRLO" Value="1.006"/>
      <ItemData ItemOID="IT.LB.LBSTNRHI" Value="1.03"/>
      <ItemData ItemOID="IT.LB.LBNRIND" Value="NORMAL"/>
      <ItemData ItemOID="IT.LB.LBLOBXFL" Value="Y"/>
      <ItemData ItemOID="IT.LB.VISITNUM" Value="1"/>
      <ItemData ItemOID="IT.LB.VISIT" Value="SCREENING 1"/>
      <ItemData ItemOID="IT.LB.EPOCH" Value="SCREENING"/>
      <ItemData ItemOID="IT.LB.LBDTC" Value="2013-01-22T11:43"/>
      <ItemData ItemOID="IT.LB.LBDY" Value="-13"/>
    </ItemGroupData>
    <ItemGroupData ItemGroupOID="IG.LB" data:ItemGroupDataSeq="73">
      <ItemData ItemOID="IT.LB.STUDYID" Value="CDISCPILOT01"/>
      <ItemData ItemOID="IT.LB.DOMAIN" Value="LB"/>
      <ItemData ItemOID="IT.LB.USUBJID" Value="CDISC005"/>
      <ItemData ItemOID="IT.LB.LBSEQ" Value="33"/>
      <ItemData ItemOID="IT.LB.LBTESTCD" Value="TSH"/>
      <ItemData ItemOID="IT.LB.LBTEST" Value="Thyrotropin"/>
      <ItemData ItemOID="IT.LB.LBCAT" Value="OTHER"/>
      <ItemData ItemOID="IT.LB.LBORRES" Value="3.66"/>
      <ItemData ItemOID="IT.LB.LBORRESU" Value="mIU/L"/>
      <ItemData ItemOID="IT.LB.LBORNRLO" Value=".32"/>
      <ItemData ItemOID="IT.LB.LBORNRHI" Value="5"/>
      <ItemData ItemOID="IT.LB.LBSTRESC" Value="3.66"/>
      <ItemData ItemOID="IT.LB.LBSTRESN" Value="3.66"/>
      <ItemData ItemOID="IT.LB.LBSTRESU" Value="mU/L"/>
      <ItemData ItemOID="IT.LB.LBSTNRLO" Value="0.32"/>
      <ItemData ItemOID="IT.LB.LBSTNRHI" Value="5"/>
      <ItemData ItemOID="IT.LB.LBNRIND" Value="NORMAL"/>
      <ItemData ItemOID="IT.LB.LBLOBXFL" Value="Y"/>
      <ItemData ItemOID="IT.LB.VISITNUM" Value="1"/>
      <ItemData ItemOID="IT.LB.VISIT" Value="SCREENING 1"/>
      <ItemData ItemOID="IT.LB.EPOCH" Value="SCREENING"/>
      <ItemData ItemOID="IT.LB.LBDTC" Value="2013-01-22T11:43"/>
      <ItemData ItemOID="IT.LB.LBDY" Value="-13"/>
    </ItemGroupData>
    <ItemGroupData ItemGroupOID="IG.LB" data:ItemGroupDataSeq="74">
      <ItemData ItemOID="IT.LB.STUDYID" Value="CDISCPILOT01"/>
      <ItemData ItemOID="IT.LB.DOMAIN" Value="LB"/>
      <ItemData ItemOID="IT.LB.USUBJID" Value="CDISC005"/>
      <ItemData ItemOID="IT.LB.LBSEQ" Value="35"/>
      <ItemData ItemOID="IT.LB.LBTESTCD" Value="UROBIL"/>
      <ItemData ItemOID="IT.LB.LBTEST" Value="Urobilinogen"/>
      <ItemData ItemOID="IT.LB.LBCAT" Value="URINALYSIS"/>
      <ItemData ItemOID="IT.LB.LBORRES" Value="0"/>
      <ItemData ItemOID="IT.LB.LBSTRESC" Value="0"/>
      <ItemData ItemOID="IT.LB.LBSTRESN" Value="0"/>
      <ItemData ItemOID="IT.LB.LBNRIND" Value="NORMAL"/>
      <ItemData ItemOID="IT.LB.LBLOBXFL" Value="Y"/>
      <ItemData ItemOID="IT.LB.VISITNUM" Value="1"/>
      <ItemData ItemOID="IT.LB.VISIT" Value="SCREENING 1"/>
      <ItemData ItemOID="IT.LB.EPOCH" Value="SCREENING"/>
      <ItemData ItemOID="IT.LB.LBDTC" Value="2013-01-22T11:43"/>
      <ItemData ItemOID="IT.LB.LBDY" Value="-13"/>
    </ItemGroupData>
    <ItemGroupData ItemGroupOID="IG.LB" data:ItemGroupDataSeq="75">
      <ItemData ItemOID="IT.LB.STUDYID" Value="CDISCPILOT01"/>
      <ItemData ItemOID="IT.LB.DOMAIN" Value="LB"/>
      <ItemData ItemOID="IT.LB.USUBJID" Value="CDISC005"/>
      <ItemData ItemOID="IT.LB.LBSEQ" Value="36"/>
      <ItemData ItemOID="IT.LB.LBTESTCD" Value="VITB12"/>
      <ItemData ItemOID="IT.LB.LBTEST" Value="Vitamin B12"/>
      <ItemData ItemOID="IT.LB.LBCAT" Value="OTHER"/>
      <ItemData ItemOID="IT.LB.LBORRES" Value="555"/>
      <ItemData ItemOID="IT.LB.LBORRESU" Value="ng/L"/>
      <ItemData ItemOID="IT.LB.LBORNRLO" Value="200"/>
      <ItemData ItemOID="IT.LB.LBORNRHI" Value="900"/>
      <ItemData ItemOID="IT.LB.LBSTRESC" Value="409.479"/>
      <ItemData ItemOID="IT.LB.LBSTRESN" Value="409.479"/>
      <ItemData ItemOID="IT.LB.LBSTRESU" Value="pmol/L"/>
      <ItemData ItemOID="IT.LB.LBSTNRLO" Value="148"/>
      <ItemData ItemOID="IT.LB.LBSTNRHI" Value="664"/>
      <ItemData ItemOID="IT.LB.LBNRIND" Value="NORMAL"/>
      <ItemData ItemOID="IT.LB.LBLOBXFL" Value="Y"/>
      <ItemData ItemOID="IT.LB.VISITNUM" Value="1"/>
      <ItemData ItemOID="IT.LB.VISIT" Value="SCREENING 1"/>
      <ItemData ItemOID="IT.LB.EPOCH" Value="SCREENING"/>
      <ItemData ItemOID="IT.LB.LBDTC" Value="2013-01-22T11:43"/>
      <ItemData ItemOID="IT.LB.LBDY" Value="-13"/>
    </ItemGroupData>
    <ItemGroupData ItemGroupOID="IG.LB" data:ItemGroupDataSeq="76">
      <ItemData ItemOID="IT.LB.STUDYID" Value="CDISCPILOT01"/>
      <ItemData ItemOID="IT.LB.DOMAIN" Value="LB"/>
      <ItemData ItemOID="IT.LB.USUBJID" Value="CDISC005"/>
      <ItemData ItemOID="IT.LB.LBSEQ" Value="49"/>
      <ItemData ItemOID="IT.LB.LBTESTCD" Value="COLOR"/>
      <ItemData ItemOID="IT.LB.LBTEST" Value="Color"/>
      <ItemData ItemOID="IT.LB.LBCAT" Value="URINALYSIS"/>
      <ItemData ItemOID="IT.LB.LBORRES" Value="NORMAL"/>
      <ItemData ItemOID="IT.LB.LBSTRESC" Value="NORMAL"/>
      <ItemData ItemOID="IT.LB.LBNRIND" Value="NORMAL"/>
      <ItemData ItemOID="IT.LB.VISITNUM" Value="4"/>
      <ItemData ItemOID="IT.LB.VISIT" Value="WEEK 2"/>
      <ItemData ItemOID="IT.LB.EPOCH" Value="TREATMENT"/>
      <ItemData ItemOID="IT.LB.LBDTC" Value="2013-02-19T09:40"/>
      <ItemData ItemOID="IT.LB.LBDY" Value="16"/>
    </ItemGroupData>
    <ItemGroupData ItemGroupOID="IG.LB" data:ItemGroupDataSeq="77">
      <ItemData ItemOID="IT.LB.STUDYID" Value="CDISCPILOT01"/>
      <ItemData ItemOID="IT.LB.DOMAIN" Value="LB"/>
      <ItemData ItemOID="IT.LB.USUBJID" Value="CDISC005"/>
      <ItemData ItemOID="IT.LB.LBSEQ" Value="57"/>
      <ItemData ItemOID="IT.LB.LBTESTCD" Value="KETONES"/>
      <ItemData ItemOID="IT.LB.LBTEST" Value="Ketones"/>
      <ItemData ItemOID="IT.LB.LBCAT" Value="URINALYSIS"/>
      <ItemData ItemOID="IT.LB.LBORRES" Value="0"/>
      <ItemData ItemOID="IT.LB.LBSTRESC" Value="0"/>
      <ItemData ItemOID="IT.LB.LBSTRESN" Value="0"/>
      <ItemData ItemOID="IT.LB.LBNRIND" Value="NORMAL"/>
      <ItemData ItemOID="IT.LB.VISITNUM" Value="4"/>
      <ItemData ItemOID="IT.LB.VISIT" Value="WEEK 2"/>
      <ItemData ItemOID="IT.LB.EPOCH" Value="TREATMENT"/>
      <ItemData ItemOID="IT.LB.LBDTC" Value="2013-02-19T09:40"/>
      <ItemData ItemOID="IT.LB.LBDY" Value="16"/>
    </ItemGroupData>
    <ItemGroupData ItemGroupOID="IG.LB" data:ItemGroupDataSeq="78">
      <ItemData ItemOID="IT.LB.STUDYID" Value="CDISCPILOT01"/>
      <ItemData ItemOID="IT.LB.DOMAIN" Value="LB"/>
      <ItemData ItemOID="IT.LB.USUBJID" Value="CDISC005"/>
      <ItemData ItemOID="IT.LB.LBSEQ" Value="64"/>
      <ItemData ItemOID="IT.LB.LBTESTCD" Value="PH"/>
      <ItemData ItemOID="IT.LB.LBTEST" Value="pH"/>
      <ItemData ItemOID="IT.LB.LBCAT" Value="URINALYSIS"/>
      <ItemData ItemOID="IT.LB.LBORRES" Value="6"/>
      <ItemData ItemOID="IT.LB.LBORNRLO" Value="5"/>
      <ItemData ItemOID="IT.LB.LBORNRHI" Value="8"/>
      <ItemData ItemOID="IT.LB.LBSTRESC" Value="6"/>
      <ItemData ItemOID="IT.LB.LBSTRESN" Value="6"/>
      <ItemData ItemOID="IT.LB.LBSTNRLO" Value="5"/>
      <ItemData ItemOID="IT.LB.LBSTNRHI" Value="8"/>
      <ItemData ItemOID="IT.LB.LBNRIND" Value="NORMAL"/>
      <ItemData ItemOID="IT.LB.VISITNUM" Value="4"/>
      <ItemData ItemOID="IT.LB.VISIT" Value="WEEK 2"/>
      <ItemData ItemOID="IT.LB.EPOCH" Value="TREATMENT"/>
      <ItemData ItemOID="IT.LB.LBDTC" Value="2013-02-19T09:40"/>
      <ItemData ItemOID="IT.LB.LBDY" Value="16"/>
    </ItemGroupData>
    <ItemGroupData ItemGroupOID="IG.LB" data:ItemGroupDataSeq="79">
      <ItemData ItemOID="IT.LB.STUDYID" Value="CDISCPILOT01"/>
      <ItemData ItemOID="IT.LB.DOMAIN" Value="LB"/>
      <ItemData ItemOID="IT.LB.USUBJID" Value="CDISC005"/>
      <ItemData ItemOID="IT.LB.LBSEQ" Value="69"/>
      <ItemData ItemOID="IT.LB.LBTESTCD" Value="SPGRAV"/>
      <ItemData ItemOID="IT.LB.LBTEST" Value="Specific Gravity"/>
      <ItemData ItemOID="IT.LB.LBCAT" Value="URINALYSIS"/>
      <ItemData ItemOID="IT.LB.LBORRES" Value="1.016"/>
      <ItemData ItemOID="IT.LB.LBORNRLO" Value="1.006"/>
      <ItemData ItemOID="IT.LB.LBORNRHI" Value="1.03"/>
      <ItemData ItemOID="IT.LB.LBSTRESC" Value="1.016"/>
      <ItemData ItemOID="IT.LB.LBSTRESN" Value="1.016"/>
      <ItemData ItemOID="IT.LB.LBSTNRLO" Value="1.006"/>
      <ItemData ItemOID="IT.LB.LBSTNRHI" Value="1.03"/>
      <ItemData ItemOID="IT.LB.LBNRIND" Value="NORMAL"/>
      <ItemData ItemOID="IT.LB.VISITNUM" Value="4"/>
      <ItemData ItemOID="IT.LB.VISIT" Value="WEEK 2"/>
      <ItemData ItemOID="IT.LB.EPOCH" Value="TREATMENT"/>
      <ItemData ItemOID="IT.LB.LBDTC" Value="2013-02-19T09:40"/>
      <ItemData ItemOID="IT.LB.LBDY" Value="16"/>
    </ItemGroupData>
    <ItemGroupData ItemGroupOID="IG.LB" data:ItemGroupDataSeq="80">
      <ItemData ItemOID="IT.LB.STUDYID" Value="CDISCPILOT01"/>
      <ItemData ItemOID="IT.LB.DOMAIN" Value="LB"/>
      <ItemData ItemOID="IT.LB.USUBJID" Value="CDISC005"/>
      <ItemData ItemOID="IT.LB.LBSEQ" Value="71"/>
      <ItemData ItemOID="IT.LB.LBTESTCD" Value="UROBIL"/>
      <ItemData ItemOID="IT.LB.LBTEST" Value="Urobilinogen"/>
      <ItemData ItemOID="IT.LB.LBCAT" Value="URINALYSIS"/>
      <ItemData ItemOID="IT.LB.LBORRES" Value="0"/>
      <ItemData ItemOID="IT.LB.LBSTRESC" Value="0"/>
      <ItemData ItemOID="IT.LB.LBSTRESN" Value="0"/>
      <ItemData ItemOID="IT.LB.LBNRIND" Value="NORMAL"/>
      <ItemData ItemOID="IT.LB.VISITNUM" Value="4"/>
      <ItemData ItemOID="IT.LB.VISIT" Value="WEEK 2"/>
      <ItemData ItemOID="IT.LB.EPOCH" Value="TREATMENT"/>
      <ItemData ItemOID="IT.LB.LBDTC" Value="2013-02-19T09:40"/>
      <ItemData ItemOID="IT.LB.LBDY" Value="16"/>
    </ItemGroupData>
    <ItemGroupData ItemGroupOID="IG.LB" data:ItemGroupDataSeq="81">
      <ItemData ItemOID="IT.LB.STUDYID" Value="CDISCPILOT01"/>
      <ItemData ItemOID="IT.LB.DOMAIN" Value="LB"/>
      <ItemData ItemOID="IT.LB.USUBJID" Value="CDISC005"/>
      <ItemData ItemOID="IT.LB.LBSEQ" Value="174"/>
      <ItemData ItemOID="IT.LB.LBTESTCD" Value="COLOR"/>
      <ItemData ItemOID="IT.LB.LBTEST" Value="Color"/>
      <ItemData ItemOID="IT.LB.LBCAT" Value="URINALYSIS"/>
      <ItemData ItemOID="IT.LB.LBORRES" Value="NORMAL"/>
      <ItemData ItemOID="IT.LB.LBSTRESC" Value="NORMAL"/>
      <ItemData ItemOID="IT.LB.LBNRIND" Value="NORMAL"/>
      <ItemData ItemOID="IT.LB.VISITNUM" Value="9"/>
      <ItemData ItemOID="IT.LB.VISIT" Value="WEEK 12"/>
      <ItemData ItemOID="IT.LB.EPOCH" Value="TREATMENT"/>
      <ItemData ItemOID="IT.LB.LBDTC" Value="2013-04-30T13:14"/>
      <ItemData ItemOID="IT.LB.LBDY" Value="86"/>
    </ItemGroupData>
    <ItemGroupData ItemGroupOID="IG.LB" data:ItemGroupDataSeq="82">
      <ItemData ItemOID="IT.LB.STUDYID" Value="CDISCPILOT01"/>
      <ItemData ItemOID="IT.LB.DOMAIN" Value="LB"/>
      <ItemData ItemOID="IT.LB.USUBJID" Value="CDISC005"/>
      <ItemData ItemOID="IT.LB.LBSEQ" Value="182"/>
      <ItemData ItemOID="IT.LB.LBTESTCD" Value="KETONES"/>
      <ItemData ItemOID="IT.LB.LBTEST" Value="Ketones"/>
      <ItemData ItemOID="IT.LB.LBCAT" Value="URINALYSIS"/>
      <ItemData ItemOID="IT.LB.LBORRES" Value="0"/>
      <ItemData ItemOID="IT.LB.LBSTRESC" Value="0"/>
      <ItemData ItemOID="IT.LB.LBSTRESN" Value="0"/>
      <ItemData ItemOID="IT.LB.LBNRIND" Value="NORMAL"/>
      <ItemData ItemOID="IT.LB.VISITNUM" Value="9"/>
      <ItemData ItemOID="IT.LB.VISIT" Value="WEEK 12"/>
      <ItemData ItemOID="IT.LB.EPOCH" Value="TREATMENT"/>
      <ItemData ItemOID="IT.LB.LBDTC" Value="2013-04-30T13:14"/>
      <ItemData ItemOID="IT.LB.LBDY" Value="86"/>
    </ItemGroupData>
    <ItemGroupData ItemGroupOID="IG.LB" data:ItemGroupDataSeq="83">
      <ItemData ItemOID="IT.LB.STUDYID" Value="CDISCPILOT01"/>
      <ItemData ItemOID="IT.LB.DOMAIN" Value="LB"/>
      <ItemData ItemOID="IT.LB.USUBJID" Value="CDISC005"/>
      <ItemData ItemOID="IT.LB.LBSEQ" Value="189"/>
      <ItemData ItemOID="IT.LB.LBTESTCD" Value="PH"/>
      <ItemData ItemOID="IT.LB.LBTEST" Value="pH"/>
      <ItemData ItemOID="IT.LB.LBCAT" Value="URINALYSIS"/>
      <ItemData ItemOID="IT.LB.LBORRES" Value="5"/>
      <ItemData ItemOID="IT.LB.LBORNRLO" Value="5"/>
      <ItemData ItemOID="IT.LB.LBORNRHI" Value="8"/>
      <ItemData ItemOID="IT.LB.LBSTRESC" Value="5"/>
      <ItemData ItemOID="IT.LB.LBSTRESN" Value="5"/>
      <ItemData ItemOID="IT.LB.LBSTNRLO" Value="5"/>
      <ItemData ItemOID="IT.LB.LBSTNRHI" Value="8"/>
      <ItemData ItemOID="IT.LB.LBNRIND" Value="NORMAL"/>
      <ItemData ItemOID="IT.LB.VISITNUM" Value="9"/>
      <ItemData ItemOID="IT.LB.VISIT" Value="WEEK 12"/>
      <ItemData ItemOID="IT.LB.EPOCH" Value="TREATMENT"/>
      <ItemData ItemOID="IT.LB.LBDTC" Value="2013-04-30T13:14"/>
      <ItemData ItemOID="IT.LB.LBDY" Value="86"/>
    </ItemGroupData>
    <ItemGroupData ItemGroupOID="IG.LB" data:ItemGroupDataSeq="84">
      <ItemData ItemOID="IT.LB.STUDYID" Value="CDISCPILOT01"/>
      <ItemData ItemOID="IT.LB.DOMAIN" Value="LB"/>
      <ItemData ItemOID="IT.LB.USUBJID" Value="CDISC005"/>
      <ItemData ItemOID="IT.LB.LBSEQ" Value="194"/>
      <ItemData ItemOID="IT.LB.LBTESTCD" Value="SPGRAV"/>
      <ItemData ItemOID="IT.LB.LBTEST" Value="Specific Gravity"/>
      <ItemData ItemOID="IT.LB.LBCAT" Value="URINALYSIS"/>
      <ItemData ItemOID="IT.LB.LBORRES" Value="1.022"/>
      <ItemData ItemOID="IT.LB.LBORNRLO" Value="1.006"/>
      <ItemData ItemOID="IT.LB.LBORNRHI" Value="1.03"/>
      <ItemData ItemOID="IT.LB.LBSTRESC" Value="1.022"/>
      <ItemData ItemOID="IT.LB.LBSTRESN" Value="1.022"/>
      <ItemData ItemOID="IT.LB.LBSTNRLO" Value="1.006"/>
      <ItemData ItemOID="IT.LB.LBSTNRHI" Value="1.03"/>
      <ItemData ItemOID="IT.LB.LBNRIND" Value="NORMAL"/>
      <ItemData ItemOID="IT.LB.VISITNUM" Value="9"/>
      <ItemData ItemOID="IT.LB.VISIT" Value="WEEK 12"/>
      <ItemData ItemOID="IT.LB.EPOCH" Value="TREATMENT"/>
      <ItemData ItemOID="IT.LB.LBDTC" Value="2013-04-30T13:14"/>
      <ItemData ItemOID="IT.LB.LBDY" Value="86"/>
    </ItemGroupData>
    <ItemGroupData ItemGroupOID="IG.LB" data:ItemGroupDataSeq="85">
      <ItemData ItemOID="IT.LB.STUDYID" Value="CDISCPILOT01"/>
      <ItemData ItemOID="IT.LB.DOMAIN" Value="LB"/>
      <ItemData ItemOID="IT.LB.USUBJID" Value="CDISC005"/>
      <ItemData ItemOID="IT.LB.LBSEQ" Value="196"/>
      <ItemData ItemOID="IT.LB.LBTESTCD" Value="UROBIL"/>
      <ItemData ItemOID="IT.LB.LBTEST" Value="Urobilinogen"/>
      <ItemData ItemOID="IT.LB.LBCAT" Value="URINALYSIS"/>
      <ItemData ItemOID="IT.LB.LBORRES" Value="0"/>
      <ItemData ItemOID="IT.LB.LBSTRESC" Value="0"/>
      <ItemData ItemOID="IT.LB.LBSTRESN" Value="0"/>
      <ItemData ItemOID="IT.LB.LBNRIND" Value="NORMAL"/>
      <ItemData ItemOID="IT.LB.VISITNUM" Value="9"/>
      <ItemData ItemOID="IT.LB.VISIT" Value="WEEK 12"/>
      <ItemData ItemOID="IT.LB.EPOCH" Value="TREATMENT"/>
      <ItemData ItemOID="IT.LB.LBDTC" Value="2013-04-30T13:14"/>
      <ItemData ItemOID="IT.LB.LBDY" Value="86"/>
    </ItemGroupData>
    <ItemGroupData ItemGroupOID="IG.LB" data:ItemGroupDataSeq="86">
      <ItemData ItemOID="IT.LB.STUDYID" Value="CDISCPILOT01"/>
      <ItemData ItemOID="IT.LB.DOMAIN" Value="LB"/>
      <ItemData ItemOID="IT.LB.USUBJID" Value="CDISC005"/>
      <ItemData ItemOID="IT.LB.LBSEQ" Value="269"/>
      <ItemData ItemOID="IT.LB.LBTESTCD" Value="COLOR"/>
      <ItemData ItemOID="IT.LB.LBTEST" Value="Color"/>
      <ItemData ItemOID="IT.LB.LBCAT" Value="URINALYSIS"/>
      <ItemData ItemOID="IT.LB.LBORRES" Value="NORMAL"/>
      <ItemData ItemOID="IT.LB.LBSTRESC" Value="NORMAL"/>
      <ItemData ItemOID="IT.LB.LBNRIND" Value="NORMAL"/>
      <ItemData ItemOID="IT.LB.VISITNUM" Value="12"/>
      <ItemData ItemOID="IT.LB.VISIT" Value="WEEK 24"/>
      <ItemData ItemOID="IT.LB.EPOCH" Value="TREATMENT"/>
      <ItemData ItemOID="IT.LB.LBDTC" Value="2013-07-30T12:32"/>
      <ItemData ItemOID="IT.LB.LBDY" Value="177"/>
    </ItemGroupData>
    <ItemGroupData ItemGroupOID="IG.LB" data:ItemGroupDataSeq="87">
      <ItemData ItemOID="IT.LB.STUDYID" Value="CDISCPILOT01"/>
      <ItemData ItemOID="IT.LB.DOMAIN" Value="LB"/>
      <ItemData ItemOID="IT.LB.USUBJID" Value="CDISC005"/>
      <ItemData ItemOID="IT.LB.LBSEQ" Value="277"/>
      <ItemData ItemOID="IT.LB.LBTESTCD" Value="KETONES"/>
      <ItemData ItemOID="IT.LB.LBTEST" Value="Ketones"/>
      <ItemData ItemOID="IT.LB.LBCAT" Value="URINALYSIS"/>
      <ItemData ItemOID="IT.LB.LBORRES" Value="0"/>
      <ItemData ItemOID="IT.LB.LBSTRESC" Value="0"/>
      <ItemData ItemOID="IT.LB.LBSTRESN" Value="0"/>
      <ItemData ItemOID="IT.LB.LBNRIND" Value="NORMAL"/>
      <ItemData ItemOID="IT.LB.VISITNUM" Value="12"/>
      <ItemData ItemOID="IT.LB.VISIT" Value="WEEK 24"/>
      <ItemData ItemOID="IT.LB.EPOCH" Value="TREATMENT"/>
      <ItemData ItemOID="IT.LB.LBDTC" Value="2013-07-30T12:32"/>
      <ItemData ItemOID="IT.LB.LBDY" Value="177"/>
    </ItemGroupData>
    <ItemGroupData ItemGroupOID="IG.LB" data:ItemGroupDataSeq="88">
      <ItemData ItemOID="IT.LB.STUDYID" Value="CDISCPILOT01"/>
      <ItemData ItemOID="IT.LB.DOMAIN" Value="LB"/>
      <ItemData ItemOID="IT.LB.USUBJID" Value="CDISC005"/>
      <ItemData ItemOID="IT.LB.LBSEQ" Value="284"/>
      <ItemData ItemOID="IT.LB.LBTESTCD" Value="PH"/>
      <ItemData ItemOID="IT.LB.LBTEST" Value="pH"/>
      <ItemData ItemOID="IT.LB.LBCAT" Value="URINALYSIS"/>
      <ItemData ItemOID="IT.LB.LBORRES" Value="7"/>
      <ItemData ItemOID="IT.LB.LBORNRLO" Value="5"/>
      <ItemData ItemOID="IT.LB.LBORNRHI" Value="8"/>
      <ItemData ItemOID="IT.LB.LBSTRESC" Value="7"/>
      <ItemData ItemOID="IT.LB.LBSTRESN" Value="7"/>
      <ItemData ItemOID="IT.LB.LBSTNRLO" Value="5"/>
      <ItemData ItemOID="IT.LB.LBSTNRHI" Value="8"/>
      <ItemData ItemOID="IT.LB.LBNRIND" Value="NORMAL"/>
      <ItemData ItemOID="IT.LB.VISITNUM" Value="12"/>
      <ItemData ItemOID="IT.LB.VISIT" Value="WEEK 24"/>
      <ItemData ItemOID="IT.LB.EPOCH" Value="TREATMENT"/>
      <ItemData ItemOID="IT.LB.LBDTC" Value="2013-07-30T12:32"/>
      <ItemData ItemOID="IT.LB.LBDY" Value="177"/>
    </ItemGroupData>
    <ItemGroupData ItemGroupOID="IG.LB" data:ItemGroupDataSeq="89">
      <ItemData ItemOID="IT.LB.STUDYID" Value="CDISCPILOT01"/>
      <ItemData ItemOID="IT.LB.DOMAIN" Value="LB"/>
      <ItemData ItemOID="IT.LB.USUBJID" Value="CDISC005"/>
      <ItemData ItemOID="IT.LB.LBSEQ" Value="289"/>
      <ItemData ItemOID="IT.LB.LBTESTCD" Value="SPGRAV"/>
      <ItemData ItemOID="IT.LB.LBTEST" Value="Specific Gravity"/>
      <ItemData ItemOID="IT.LB.LBCAT" Value="URINALYSIS"/>
      <ItemData ItemOID="IT.LB.LBORRES" Value="1.017"/>
      <ItemData ItemOID="IT.LB.LBORNRLO" Value="1.006"/>
      <ItemData ItemOID="IT.LB.LBORNRHI" Value="1.03"/>
      <ItemData ItemOID="IT.LB.LBSTRESC" Value="1.017"/>
      <ItemData ItemOID="IT.LB.LBSTRESN" Value="1.017"/>
      <ItemData ItemOID="IT.LB.LBSTNRLO" Value="1.006"/>
      <ItemData ItemOID="IT.LB.LBSTNRHI" Value="1.03"/>
      <ItemData ItemOID="IT.LB.LBNRIND" Value="NORMAL"/>
      <ItemData ItemOID="IT.LB.VISITNUM" Value="12"/>
      <ItemData ItemOID="IT.LB.VISIT" Value="WEEK 24"/>
      <ItemData ItemOID="IT.LB.EPOCH" Value="TREATMENT"/>
      <ItemData ItemOID="IT.LB.LBDTC" Value="2013-07-30T12:32"/>
      <ItemData ItemOID="IT.LB.LBDY" Value="177"/>
    </ItemGroupData>
    <ItemGroupData ItemGroupOID="IG.LB" data:ItemGroupDataSeq="90">
      <ItemData ItemOID="IT.LB.STUDYID" Value="CDISCPILOT01"/>
      <ItemData ItemOID="IT.LB.DOMAIN" Value="LB"/>
      <ItemData ItemOID="IT.LB.USUBJID" Value="CDISC005"/>
      <ItemData ItemOID="IT.LB.LBSEQ" Value="291"/>
      <ItemData ItemOID="IT.LB.LBTESTCD" Value="UROBIL"/>
      <ItemData ItemOID="IT.LB.LBTEST" Value="Urobilinogen"/>
      <ItemData ItemOID="IT.LB.LBCAT" Value="URINALYSIS"/>
      <ItemData ItemOID="IT.LB.LBORRES" Value="0"/>
      <ItemData ItemOID="IT.LB.LBSTRESC" Value="0"/>
      <ItemData ItemOID="IT.LB.LBSTRESN" Value="0"/>
      <ItemData ItemOID="IT.LB.LBNRIND" Value="NORMAL"/>
      <ItemData ItemOID="IT.LB.VISITNUM" Value="12"/>
      <ItemData ItemOID="IT.LB.VISIT" Value="WEEK 24"/>
      <ItemData ItemOID="IT.LB.EPOCH" Value="TREATMENT"/>
      <ItemData ItemOID="IT.LB.LBDTC" Value="2013-07-30T12:32"/>
      <ItemData ItemOID="IT.LB.LBDY" Value="177"/>
    </ItemGroupData>
    <ItemGroupData ItemGroupOID="IG.LB" data:ItemGroupDataSeq="91">
      <ItemData ItemOID="IT.LB.STUDYID" Value="CDISCPILOT01"/>
      <ItemData ItemOID="IT.LB.DOMAIN" Value="LB"/>
      <ItemData ItemOID="IT.LB.USUBJID" Value="CDISC006"/>
      <ItemData ItemOID="IT.LB.LBSEQ" Value="12"/>
      <ItemData ItemOID="IT.LB.LBTESTCD" Value="COLOR"/>
      <ItemData ItemOID="IT.LB.LBTEST" Value="Color"/>
      <ItemData ItemOID="IT.LB.LBCAT" Value="URINALYSIS"/>
      <ItemData ItemOID="IT.LB.LBORRES" Value="NORMAL"/>
      <ItemData ItemOID="IT.LB.LBSTRESC" Value="NORMAL"/>
      <ItemData ItemOID="IT.LB.LBNRIND" Value="NORMAL"/>
      <ItemData ItemOID="IT.LB.LBLOBXFL" Value="Y"/>
      <ItemData ItemOID="IT.LB.VISITNUM" Value="1"/>
      <ItemData ItemOID="IT.LB.VISIT" Value="SCREENING 1"/>
      <ItemData ItemOID="IT.LB.EPOCH" Value="SCREENING"/>
      <ItemData ItemOID="IT.LB.LBDTC" Value="2013-02-21T16:20"/>
      <ItemData ItemOID="IT.LB.LBDY" Value="-26"/>
    </ItemGroupData>
    <ItemGroupData ItemGroupOID="IG.LB" data:ItemGroupDataSeq="92">
      <ItemData ItemOID="IT.LB.STUDYID" Value="CDISCPILOT01"/>
      <ItemData ItemOID="IT.LB.DOMAIN" Value="LB"/>
      <ItemData ItemOID="IT.LB.USUBJID" Value="CDISC006"/>
      <ItemData ItemOID="IT.LB.LBSEQ" Value="20"/>
      <ItemData ItemOID="IT.LB.LBTESTCD" Value="KETONES"/>
      <ItemData ItemOID="IT.LB.LBTEST" Value="Ketones"/>
      <ItemData ItemOID="IT.LB.LBCAT" Value="URINALYSIS"/>
      <ItemData ItemOID="IT.LB.LBORRES" Value="0"/>
      <ItemData ItemOID="IT.LB.LBSTRESC" Value="0"/>
      <ItemData ItemOID="IT.LB.LBSTRESN" Value="0"/>
      <ItemData ItemOID="IT.LB.LBNRIND" Value="NORMAL"/>
      <ItemData ItemOID="IT.LB.LBLOBXFL" Value="Y"/>
      <ItemData ItemOID="IT.LB.VISITNUM" Value="1"/>
      <ItemData ItemOID="IT.LB.VISIT" Value="SCREENING 1"/>
      <ItemData ItemOID="IT.LB.EPOCH" Value="SCREENING"/>
      <ItemData ItemOID="IT.LB.LBDTC" Value="2013-02-21T16:20"/>
      <ItemData ItemOID="IT.LB.LBDY" Value="-26"/>
    </ItemGroupData>
    <ItemGroupData ItemGroupOID="IG.LB" data:ItemGroupDataSeq="93">
      <ItemData ItemOID="IT.LB.STUDYID" Value="CDISCPILOT01"/>
      <ItemData ItemOID="IT.LB.DOMAIN" Value="LB"/>
      <ItemData ItemOID="IT.LB.USUBJID" Value="CDISC006"/>
      <ItemData ItemOID="IT.LB.LBSEQ" Value="27"/>
      <ItemData ItemOID="IT.LB.LBTESTCD" Value="PH"/>
      <ItemData ItemOID="IT.LB.LBTEST" Value="pH"/>
      <ItemData ItemOID="IT.LB.LBCAT" Value="URINALYSIS"/>
      <ItemData ItemOID="IT.LB.LBORRES" Value="6"/>
      <ItemData ItemOID="IT.LB.LBORNRLO" Value="5"/>
      <ItemData ItemOID="IT.LB.LBORNRHI" Value="8"/>
      <ItemData ItemOID="IT.LB.LBSTRESC" Value="6"/>
      <ItemData ItemOID="IT.LB.LBSTRESN" Value="6"/>
      <ItemData ItemOID="IT.LB.LBSTNRLO" Value="5"/>
      <ItemData ItemOID="IT.LB.LBSTNRHI" Value="8"/>
      <ItemData ItemOID="IT.LB.LBNRIND" Value="NORMAL"/>
      <ItemData ItemOID="IT.LB.LBLOBXFL" Value="Y"/>
      <ItemData ItemOID="IT.LB.VISITNUM" Value="1"/>
      <ItemData ItemOID="IT.LB.VISIT" Value="SCREENING 1"/>
      <ItemData ItemOID="IT.LB.EPOCH" Value="SCREENING"/>
      <ItemData ItemOID="IT.LB.LBDTC" Value="2013-02-21T16:20"/>
      <ItemData ItemOID="IT.LB.LBDY" Value="-26"/>
    </ItemGroupData>
    <ItemGroupData ItemGroupOID="IG.LB" data:ItemGroupDataSeq="94">
      <ItemData ItemOID="IT.LB.STUDYID" Value="CDISCPILOT01"/>
      <ItemData ItemOID="IT.LB.DOMAIN" Value="LB"/>
      <ItemData ItemOID="IT.LB.USUBJID" Value="CDISC006"/>
      <ItemData ItemOID="IT.LB.LBSEQ" Value="32"/>
      <ItemData ItemOID="IT.LB.LBTESTCD" Value="SPGRAV"/>
      <ItemData ItemOID="IT.LB.LBTEST" Value="Specific Gravity"/>
      <ItemData ItemOID="IT.LB.LBCAT" Value="URINALYSIS"/>
      <ItemData ItemOID="IT.LB.LBORRES" Value="1.016"/>
      <ItemData ItemOID="IT.LB.LBORNRLO" Value="1.006"/>
      <ItemData ItemOID="IT.LB.LBORNRHI" Value="1.03"/>
      <ItemData ItemOID="IT.LB.LBSTRESC" Value="1.016"/>
      <ItemData ItemOID="IT.LB.LBSTRESN" Value="1.016"/>
      <ItemData ItemOID="IT.LB.LBSTNRLO" Value="1.006"/>
      <ItemData ItemOID="IT.LB.LBSTNRHI" Value="1.03"/>
      <ItemData ItemOID="IT.LB.LBNRIND" Value="NORMAL"/>
      <ItemData ItemOID="IT.LB.LBLOBXFL" Value="Y"/>
      <ItemData ItemOID="IT.LB.VISITNUM" Value="1"/>
      <ItemData ItemOID="IT.LB.VISIT" Value="SCREENING 1"/>
      <ItemData ItemOID="IT.LB.EPOCH" Value="SCREENING"/>
      <ItemData ItemOID="IT.LB.LBDTC" Value="2013-02-21T16:20"/>
      <ItemData ItemOID="IT.LB.LBDY" Value="-26"/>
    </ItemGroupData>
    <ItemGroupData ItemGroupOID="IG.LB" data:ItemGroupDataSeq="95">
      <ItemData ItemOID="IT.LB.STUDYID" Value="CDISCPILOT01"/>
      <ItemData ItemOID="IT.LB.DOMAIN" Value="LB"/>
      <ItemData ItemOID="IT.LB.USUBJID" Value="CDISC006"/>
      <ItemData ItemOID="IT.LB.LBSEQ" Value="33"/>
      <ItemData ItemOID="IT.LB.LBTESTCD" Value="TSH"/>
      <ItemData ItemOID="IT.LB.LBTEST" Value="Thyrotropin"/>
      <ItemData ItemOID="IT.LB.LBCAT" Value="OTHER"/>
      <ItemData ItemOID="IT.LB.LBORRES" Value="1.19"/>
      <ItemData ItemOID="IT.LB.LBORRESU" Value="mIU/L"/>
      <ItemData ItemOID="IT.LB.LBORNRLO" Value=".32"/>
      <ItemData ItemOID="IT.LB.LBORNRHI" Value="5"/>
      <ItemData ItemOID="IT.LB.LBSTRESC" Value="1.19"/>
      <ItemData ItemOID="IT.LB.LBSTRESN" Value="1.19"/>
      <ItemData ItemOID="IT.LB.LBSTRESU" Value="mU/L"/>
      <ItemData ItemOID="IT.LB.LBSTNRLO" Value="0.32"/>
      <ItemData ItemOID="IT.LB.LBSTNRHI" Value="5"/>
      <ItemData ItemOID="IT.LB.LBNRIND" Value="NORMAL"/>
      <ItemData ItemOID="IT.LB.LBLOBXFL" Value="Y"/>
      <ItemData ItemOID="IT.LB.VISITNUM" Value="1"/>
      <ItemData ItemOID="IT.LB.VISIT" Value="SCREENING 1"/>
      <ItemData ItemOID="IT.LB.EPOCH" Value="SCREENING"/>
      <ItemData ItemOID="IT.LB.LBDTC" Value="2013-02-21T16:20"/>
      <ItemData ItemOID="IT.LB.LBDY" Value="-26"/>
    </ItemGroupData>
    <ItemGroupData ItemGroupOID="IG.LB" data:ItemGroupDataSeq="96">
      <ItemData ItemOID="IT.LB.STUDYID" Value="CDISCPILOT01"/>
      <ItemData ItemOID="IT.LB.DOMAIN" Value="LB"/>
      <ItemData ItemOID="IT.LB.USUBJID" Value="CDISC006"/>
      <ItemData ItemOID="IT.LB.LBSEQ" Value="35"/>
      <ItemData ItemOID="IT.LB.LBTESTCD" Value="UROBIL"/>
      <ItemData ItemOID="IT.LB.LBTEST" Value="Urobilinogen"/>
      <ItemData ItemOID="IT.LB.LBCAT" Value="URINALYSIS"/>
      <ItemData ItemOID="IT.LB.LBORRES" Value="0"/>
      <ItemData ItemOID="IT.LB.LBSTRESC" Value="0"/>
      <ItemData ItemOID="IT.LB.LBSTRESN" Value="0"/>
      <ItemData ItemOID="IT.LB.LBNRIND" Value="NORMAL"/>
      <ItemData ItemOID="IT.LB.LBLOBXFL" Value="Y"/>
      <ItemData ItemOID="IT.LB.VISITNUM" Value="1"/>
      <ItemData ItemOID="IT.LB.VISIT" Value="SCREENING 1"/>
      <ItemData ItemOID="IT.LB.EPOCH" Value="SCREENING"/>
      <ItemData ItemOID="IT.LB.LBDTC" Value="2013-02-21T16:20"/>
      <ItemData ItemOID="IT.LB.LBDY" Value="-26"/>
    </ItemGroupData>
    <ItemGroupData ItemGroupOID="IG.LB" data:ItemGroupDataSeq="97">
      <ItemData ItemOID="IT.LB.STUDYID" Value="CDISCPILOT01"/>
      <ItemData ItemOID="IT.LB.DOMAIN" Value="LB"/>
      <ItemData ItemOID="IT.LB.USUBJID" Value="CDISC006"/>
      <ItemData ItemOID="IT.LB.LBSEQ" Value="36"/>
      <ItemData ItemOID="IT.LB.LBTESTCD" Value="VITB12"/>
      <ItemData ItemOID="IT.LB.LBTEST" Value="Vitamin B12"/>
      <ItemData ItemOID="IT.LB.LBCAT" Value="OTHER"/>
      <ItemData ItemOID="IT.LB.LBORRES" Value="329"/>
      <ItemData ItemOID="IT.LB.LBORRESU" Value="ng/L"/>
      <ItemData ItemOID="IT.LB.LBORNRLO" Value="200"/>
      <ItemData ItemOID="IT.LB.LBORNRHI" Value="900"/>
      <ItemData ItemOID="IT.LB.LBSTRESC" Value="242.7362"/>
      <ItemData ItemOID="IT.LB.LBSTRESN" Value="242.7362"/>
      <ItemData ItemOID="IT.LB.LBSTRESU" Value="pmol/L"/>
      <ItemData ItemOID="IT.LB.LBSTNRLO" Value="148"/>
      <ItemData ItemOID="IT.LB.LBSTNRHI" Value="664"/>
      <ItemData ItemOID="IT.LB.LBNRIND" Value="NORMAL"/>
      <ItemData ItemOID="IT.LB.LBLOBXFL" Value="Y"/>
      <ItemData ItemOID="IT.LB.VISITNUM" Value="1"/>
      <ItemData ItemOID="IT.LB.VISIT" Value="SCREENING 1"/>
      <ItemData ItemOID="IT.LB.EPOCH" Value="SCREENING"/>
      <ItemData ItemOID="IT.LB.LBDTC" Value="2013-02-21T16:20"/>
      <ItemData ItemOID="IT.LB.LBDY" Value="-26"/>
    </ItemGroupData>
    <ItemGroupData ItemGroupOID="IG.LB" data:ItemGroupDataSeq="98">
      <ItemData ItemOID="IT.LB.STUDYID" Value="CDISCPILOT01"/>
      <ItemData ItemOID="IT.LB.DOMAIN" Value="LB"/>
      <ItemData ItemOID="IT.LB.USUBJID" Value="CDISC006"/>
      <ItemData ItemOID="IT.LB.LBSEQ" Value="49"/>
      <ItemData ItemOID="IT.LB.LBTESTCD" Value="COLOR"/>
      <ItemData ItemOID="IT.LB.LBTEST" Value="Color"/>
      <ItemData ItemOID="IT.LB.LBCAT" Value="URINALYSIS"/>
      <ItemData ItemOID="IT.LB.LBORRES" Value="NORMAL"/>
      <ItemData ItemOID="IT.LB.LBSTRESC" Value="NORMAL"/>
      <ItemData ItemOID="IT.LB.LBNRIND" Value="NORMAL"/>
      <ItemData ItemOID="IT.LB.VISITNUM" Value="4"/>
      <ItemData ItemOID="IT.LB.VISIT" Value="WEEK 2"/>
      <ItemData ItemOID="IT.LB.EPOCH" Value="TREATMENT"/>
      <ItemData ItemOID="IT.LB.LBDTC" Value="2013-04-02T12:41"/>
      <ItemData ItemOID="IT.LB.LBDY" Value="15"/>
    </ItemGroupData>
    <ItemGroupData ItemGroupOID="IG.LB" data:ItemGroupDataSeq="99">
      <ItemData ItemOID="IT.LB.STUDYID" Value="CDISCPILOT01"/>
      <ItemData ItemOID="IT.LB.DOMAIN" Value="LB"/>
      <ItemData ItemOID="IT.LB.USUBJID" Value="CDISC006"/>
      <ItemData ItemOID="IT.LB.LBSEQ" Value="57"/>
      <ItemData ItemOID="IT.LB.LBTESTCD" Value="KETONES"/>
      <ItemData ItemOID="IT.LB.LBTEST" Value="Ketones"/>
      <ItemData ItemOID="IT.LB.LBCAT" Value="URINALYSIS"/>
      <ItemData ItemOID="IT.LB.LBORRES" Value="0"/>
      <ItemData ItemOID="IT.LB.LBSTRESC" Value="0"/>
      <ItemData ItemOID="IT.LB.LBSTRESN" Value="0"/>
      <ItemData ItemOID="IT.LB.LBNRIND" Value="NORMAL"/>
      <ItemData ItemOID="IT.LB.VISITNUM" Value="4"/>
      <ItemData ItemOID="IT.LB.VISIT" Value="WEEK 2"/>
      <ItemData ItemOID="IT.LB.EPOCH" Value="TREATMENT"/>
      <ItemData ItemOID="IT.LB.LBDTC" Value="2013-04-02T12:41"/>
      <ItemData ItemOID="IT.LB.LBDY" Value="15"/>
    </ItemGroupData>
    <ItemGroupData ItemGroupOID="IG.LB" data:ItemGroupDataSeq="100">
      <ItemData ItemOID="IT.LB.STUDYID" Value="CDISCPILOT01"/>
      <ItemData ItemOID="IT.LB.DOMAIN" Value="LB"/>
      <ItemData ItemOID="IT.LB.USUBJID" Value="CDISC006"/>
      <ItemData ItemOID="IT.LB.LBSEQ" Value="64"/>
      <ItemData ItemOID="IT.LB.LBTESTCD" Value="PH"/>
      <ItemData ItemOID="IT.LB.LBTEST" Value="pH"/>
      <ItemData ItemOID="IT.LB.LBCAT" Value="URINALYSIS"/>
      <ItemData ItemOID="IT.LB.LBORRES" Value="5"/>
      <ItemData ItemOID="IT.LB.LBORNRLO" Value="5"/>
      <ItemData ItemOID="IT.LB.LBORNRHI" Value="8"/>
      <ItemData ItemOID="IT.LB.LBSTRESC" Value="5"/>
      <ItemData ItemOID="IT.LB.LBSTRESN" Value="5"/>
      <ItemData ItemOID="IT.LB.LBSTNRLO" Value="5"/>
      <ItemData ItemOID="IT.LB.LBSTNRHI" Value="8"/>
      <ItemData ItemOID="IT.LB.LBNRIND" Value="NORMAL"/>
      <ItemData ItemOID="IT.LB.VISITNUM" Value="4"/>
      <ItemData ItemOID="IT.LB.VISIT" Value="WEEK 2"/>
      <ItemData ItemOID="IT.LB.EPOCH" Value="TREATMENT"/>
      <ItemData ItemOID="IT.LB.LBDTC" Value="2013-04-02T12:41"/>
      <ItemData ItemOID="IT.LB.LBDY" Value="15"/>
    </ItemGroupData>
    <ItemGroupData ItemGroupOID="IG.LB" data:ItemGroupDataSeq="101">
      <ItemData ItemOID="IT.LB.STUDYID" Value="CDISCPILOT01"/>
      <ItemData ItemOID="IT.LB.DOMAIN" Value="LB"/>
      <ItemData ItemOID="IT.LB.USUBJID" Value="CDISC006"/>
      <ItemData ItemOID="IT.LB.LBSEQ" Value="69"/>
      <ItemData ItemOID="IT.LB.LBTESTCD" Value="SPGRAV"/>
      <ItemData ItemOID="IT.LB.LBTEST" Value="Specific Gravity"/>
      <ItemData ItemOID="IT.LB.LBCAT" Value="URINALYSIS"/>
      <ItemData ItemOID="IT.LB.LBORRES" Value="1.013"/>
      <ItemData ItemOID="IT.LB.LBORNRLO" Value="1.006"/>
      <ItemData ItemOID="IT.LB.LBORNRHI" Value="1.03"/>
      <ItemData ItemOID="IT.LB.LBSTRESC" Value="1.013"/>
      <ItemData ItemOID="IT.LB.LBSTRESN" Value="1.013"/>
      <ItemData ItemOID="IT.LB.LBSTNRLO" Value="1.006"/>
      <ItemData ItemOID="IT.LB.LBSTNRHI" Value="1.03"/>
      <ItemData ItemOID="IT.LB.LBNRIND" Value="NORMAL"/>
      <ItemData ItemOID="IT.LB.VISITNUM" Value="4"/>
      <ItemData ItemOID="IT.LB.VISIT" Value="WEEK 2"/>
      <ItemData ItemOID="IT.LB.EPOCH" Value="TREATMENT"/>
      <ItemData ItemOID="IT.LB.LBDTC" Value="2013-04-02T12:41"/>
      <ItemData ItemOID="IT.LB.LBDY" Value="15"/>
    </ItemGroupData>
    <ItemGroupData ItemGroupOID="IG.LB" data:ItemGroupDataSeq="102">
      <ItemData ItemOID="IT.LB.STUDYID" Value="CDISCPILOT01"/>
      <ItemData ItemOID="IT.LB.DOMAIN" Value="LB"/>
      <ItemData ItemOID="IT.LB.USUBJID" Value="CDISC006"/>
      <ItemData ItemOID="IT.LB.LBSEQ" Value="71"/>
      <ItemData ItemOID="IT.LB.LBTESTCD" Value="UROBIL"/>
      <ItemData ItemOID="IT.LB.LBTEST" Value="Urobilinogen"/>
      <ItemData ItemOID="IT.LB.LBCAT" Value="URINALYSIS"/>
      <ItemData ItemOID="IT.LB.LBORRES" Value="0"/>
      <ItemData ItemOID="IT.LB.LBSTRESC" Value="0"/>
      <ItemData ItemOID="IT.LB.LBSTRESN" Value="0"/>
      <ItemData ItemOID="IT.LB.LBNRIND" Value="NORMAL"/>
      <ItemData ItemOID="IT.LB.VISITNUM" Value="4"/>
      <ItemData ItemOID="IT.LB.VISIT" Value="WEEK 2"/>
      <ItemData ItemOID="IT.LB.EPOCH" Value="TREATMENT"/>
      <ItemData ItemOID="IT.LB.LBDTC" Value="2013-04-02T12:41"/>
      <ItemData ItemOID="IT.LB.LBDY" Value="15"/>
    </ItemGroupData>
    <ItemGroupData ItemGroupOID="IG.LB" data:ItemGroupDataSeq="103">
      <ItemData ItemOID="IT.LB.STUDYID" Value="CDISCPILOT01"/>
      <ItemData ItemOID="IT.LB.DOMAIN" Value="LB"/>
      <ItemData ItemOID="IT.LB.USUBJID" Value="CDISC006"/>
      <ItemData ItemOID="IT.LB.LBSEQ" Value="114"/>
      <ItemData ItemOID="IT.LB.LBTESTCD" Value="COLOR"/>
      <ItemData ItemOID="IT.LB.LBTEST" Value="Color"/>
      <ItemData ItemOID="IT.LB.LBCAT" Value="URINALYSIS"/>
      <ItemData ItemOID="IT.LB.LBORRES" Value="NORMAL"/>
      <ItemData ItemOID="IT.LB.LBSTRESC" Value="NORMAL"/>
      <ItemData ItemOID="IT.LB.LBNRIND" Value="NORMAL"/>
      <ItemData ItemOID="IT.LB.VISITNUM" Value="7"/>
      <ItemData ItemOID="IT.LB.VISIT" Value="WEEK 6"/>
      <ItemData ItemOID="IT.LB.EPOCH" Value="TREATMENT"/>
      <ItemData ItemOID="IT.LB.LBDTC" Value="2013-04-30T12:22"/>
      <ItemData ItemOID="IT.LB.LBDY" Value="43"/>
    </ItemGroupData>
    <ItemGroupData ItemGroupOID="IG.LB" data:ItemGroupDataSeq="104">
      <ItemData ItemOID="IT.LB.STUDYID" Value="CDISCPILOT01"/>
      <ItemData ItemOID="IT.LB.DOMAIN" Value="LB"/>
      <ItemData ItemOID="IT.LB.USUBJID" Value="CDISC006"/>
      <ItemData ItemOID="IT.LB.LBSEQ" Value="122"/>
      <ItemData ItemOID="IT.LB.LBTESTCD" Value="KETONES"/>
      <ItemData ItemOID="IT.LB.LBTEST" Value="Ketones"/>
      <ItemData ItemOID="IT.LB.LBCAT" Value="URINALYSIS"/>
      <ItemData ItemOID="IT.LB.LBORRES" Value="0"/>
      <ItemData ItemOID="IT.LB.LBSTRESC" Value="0"/>
      <ItemData ItemOID="IT.LB.LBSTRESN" Value="0"/>
      <ItemData ItemOID="IT.LB.LBNRIND" Value="NORMAL"/>
      <ItemData ItemOID="IT.LB.VISITNUM" Value="7"/>
      <ItemData ItemOID="IT.LB.VISIT" Value="WEEK 6"/>
      <ItemData ItemOID="IT.LB.EPOCH" Value="TREATMENT"/>
      <ItemData ItemOID="IT.LB.LBDTC" Value="2013-04-30T12:22"/>
      <ItemData ItemOID="IT.LB.LBDY" Value="43"/>
    </ItemGroupData>
    <ItemGroupData ItemGroupOID="IG.LB" data:ItemGroupDataSeq="105">
      <ItemData ItemOID="IT.LB.STUDYID" Value="CDISCPILOT01"/>
      <ItemData ItemOID="IT.LB.DOMAIN" Value="LB"/>
      <ItemData ItemOID="IT.LB.USUBJID" Value="CDISC006"/>
      <ItemData ItemOID="IT.LB.LBSEQ" Value="129"/>
      <ItemData ItemOID="IT.LB.LBTESTCD" Value="PH"/>
      <ItemData ItemOID="IT.LB.LBTEST" Value="pH"/>
      <ItemData ItemOID="IT.LB.LBCAT" Value="URINALYSIS"/>
      <ItemData ItemOID="IT.LB.LBORRES" Value="6"/>
      <ItemData ItemOID="IT.LB.LBORNRLO" Value="5"/>
      <ItemData ItemOID="IT.LB.LBORNRHI" Value="8"/>
      <ItemData ItemOID="IT.LB.LBSTRESC" Value="6"/>
      <ItemData ItemOID="IT.LB.LBSTRESN" Value="6"/>
      <ItemData ItemOID="IT.LB.LBSTNRLO" Value="5"/>
      <ItemData ItemOID="IT.LB.LBSTNRHI" Value="8"/>
      <ItemData ItemOID="IT.LB.LBNRIND" Value="NORMAL"/>
      <ItemData ItemOID="IT.LB.VISITNUM" Value="7"/>
      <ItemData ItemOID="IT.LB.VISIT" Value="WEEK 6"/>
      <ItemData ItemOID="IT.LB.EPOCH" Value="TREATMENT"/>
      <ItemData ItemOID="IT.LB.LBDTC" Value="2013-04-30T12:22"/>
      <ItemData ItemOID="IT.LB.LBDY" Value="43"/>
    </ItemGroupData>
    <ItemGroupData ItemGroupOID="IG.LB" data:ItemGroupDataSeq="106">
      <ItemData ItemOID="IT.LB.STUDYID" Value="CDISCPILOT01"/>
      <ItemData ItemOID="IT.LB.DOMAIN" Value="LB"/>
      <ItemData ItemOID="IT.LB.USUBJID" Value="CDISC006"/>
      <ItemData ItemOID="IT.LB.LBSEQ" Value="134"/>
      <ItemData ItemOID="IT.LB.LBTESTCD" Value="SPGRAV"/>
      <ItemData ItemOID="IT.LB.LBTEST" Value="Specific Gravity"/>
      <ItemData ItemOID="IT.LB.LBCAT" Value="URINALYSIS"/>
      <ItemData ItemOID="IT.LB.LBORRES" Value="1.025"/>
      <ItemData ItemOID="IT.LB.LBORNRLO" Value="1.006"/>
      <ItemData ItemOID="IT.LB.LBORNRHI" Value="1.03"/>
      <ItemData ItemOID="IT.LB.LBSTRESC" Value="1.025"/>
      <ItemData ItemOID="IT.LB.LBSTRESN" Value="1.025"/>
      <ItemData ItemOID="IT.LB.LBSTNRLO" Value="1.006"/>
      <ItemData ItemOID="IT.LB.LBSTNRHI" Value="1.03"/>
      <ItemData ItemOID="IT.LB.LBNRIND" Value="NORMAL"/>
      <ItemData ItemOID="IT.LB.VISITNUM" Value="7"/>
      <ItemData ItemOID="IT.LB.VISIT" Value="WEEK 6"/>
      <ItemData ItemOID="IT.LB.EPOCH" Value="TREATMENT"/>
      <ItemData ItemOID="IT.LB.LBDTC" Value="2013-04-30T12:22"/>
      <ItemData ItemOID="IT.LB.LBDY" Value="43"/>
    </ItemGroupData>
    <ItemGroupData ItemGroupOID="IG.LB" data:ItemGroupDataSeq="107">
      <ItemData ItemOID="IT.LB.STUDYID" Value="CDISCPILOT01"/>
      <ItemData ItemOID="IT.LB.DOMAIN" Value="LB"/>
      <ItemData ItemOID="IT.LB.USUBJID" Value="CDISC006"/>
      <ItemData ItemOID="IT.LB.LBSEQ" Value="136"/>
      <ItemData ItemOID="IT.LB.LBTESTCD" Value="UROBIL"/>
      <ItemData ItemOID="IT.LB.LBTEST" Value="Urobilinogen"/>
      <ItemData ItemOID="IT.LB.LBCAT" Value="URINALYSIS"/>
      <ItemData ItemOID="IT.LB.LBORRES" Value="0"/>
      <ItemData ItemOID="IT.LB.LBSTRESC" Value="0"/>
      <ItemData ItemOID="IT.LB.LBSTRESN" Value="0"/>
      <ItemData ItemOID="IT.LB.LBNRIND" Value="NORMAL"/>
      <ItemData ItemOID="IT.LB.VISITNUM" Value="7"/>
      <ItemData ItemOID="IT.LB.VISIT" Value="WEEK 6"/>
      <ItemData ItemOID="IT.LB.EPOCH" Value="TREATMENT"/>
      <ItemData ItemOID="IT.LB.LBDTC" Value="2013-04-30T12:22"/>
      <ItemData ItemOID="IT.LB.LBDY" Value="43"/>
    </ItemGroupData>
    <ItemGroupData ItemGroupOID="IG.LB" data:ItemGroupDataSeq="108">
      <ItemData ItemOID="IT.LB.STUDYID" Value="CDISCPILOT01"/>
      <ItemData ItemOID="IT.LB.DOMAIN" Value="LB"/>
      <ItemData ItemOID="IT.LB.USUBJID" Value="CDISC007"/>
      <ItemData ItemOID="IT.LB.LBSEQ" Value="12"/>
      <ItemData ItemOID="IT.LB.LBTESTCD" Value="COLOR"/>
      <ItemData ItemOID="IT.LB.LBTEST" Value="Color"/>
      <ItemData ItemOID="IT.LB.LBCAT" Value="URINALYSIS"/>
      <ItemData ItemOID="IT.LB.LBORRES" Value="NORMAL"/>
      <ItemData ItemOID="IT.LB.LBSTRESC" Value="NORMAL"/>
      <ItemData ItemOID="IT.LB.LBNRIND" Value="NORMAL"/>
      <ItemData ItemOID="IT.LB.LBLOBXFL" Value="Y"/>
      <ItemData ItemOID="IT.LB.VISITNUM" Value="1"/>
      <ItemData ItemOID="IT.LB.VISIT" Value="SCREENING 1"/>
      <ItemData ItemOID="IT.LB.EPOCH" Value="SCREENING"/>
      <ItemData ItemOID="IT.LB.LBDTC" Value="2012-12-31T11:05"/>
      <ItemData ItemOID="IT.LB.LBDY" Value="-5"/>
    </ItemGroupData>
    <ItemGroupData ItemGroupOID="IG.LB" data:ItemGroupDataSeq="109">
      <ItemData ItemOID="IT.LB.STUDYID" Value="CDISCPILOT01"/>
      <ItemData ItemOID="IT.LB.DOMAIN" Value="LB"/>
      <ItemData ItemOID="IT.LB.USUBJID" Value="CDISC007"/>
      <ItemData ItemOID="IT.LB.LBSEQ" Value="20"/>
      <ItemData ItemOID="IT.LB.LBTESTCD" Value="KETONES"/>
      <ItemData ItemOID="IT.LB.LBTEST" Value="Ketones"/>
      <ItemData ItemOID="IT.LB.LBCAT" Value="URINALYSIS"/>
      <ItemData ItemOID="IT.LB.LBORRES" Value="0"/>
      <ItemData ItemOID="IT.LB.LBSTRESC" Value="0"/>
      <ItemData ItemOID="IT.LB.LBSTRESN" Value="0"/>
      <ItemData ItemOID="IT.LB.LBNRIND" Value="NORMAL"/>
      <ItemData ItemOID="IT.LB.LBLOBXFL" Value="Y"/>
      <ItemData ItemOID="IT.LB.VISITNUM" Value="1"/>
      <ItemData ItemOID="IT.LB.VISIT" Value="SCREENING 1"/>
      <ItemData ItemOID="IT.LB.EPOCH" Value="SCREENING"/>
      <ItemData ItemOID="IT.LB.LBDTC" Value="2012-12-31T11:05"/>
      <ItemData ItemOID="IT.LB.LBDY" Value="-5"/>
    </ItemGroupData>
    <ItemGroupData ItemGroupOID="IG.LB" data:ItemGroupDataSeq="110">
      <ItemData ItemOID="IT.LB.STUDYID" Value="CDISCPILOT01"/>
      <ItemData ItemOID="IT.LB.DOMAIN" Value="LB"/>
      <ItemData ItemOID="IT.LB.USUBJID" Value="CDISC007"/>
      <ItemData ItemOID="IT.LB.LBSEQ" Value="27"/>
      <ItemData ItemOID="IT.LB.LBTESTCD" Value="PH"/>
      <ItemData ItemOID="IT.LB.LBTEST" Value="pH"/>
      <ItemData ItemOID="IT.LB.LBCAT" Value="URINALYSIS"/>
      <ItemData ItemOID="IT.LB.LBORRES" Value="5"/>
      <ItemData ItemOID="IT.LB.LBORNRLO" Value="5"/>
      <ItemData ItemOID="IT.LB.LBORNRHI" Value="8"/>
      <ItemData ItemOID="IT.LB.LBSTRESC" Value="5"/>
      <ItemData ItemOID="IT.LB.LBSTRESN" Value="5"/>
      <ItemData ItemOID="IT.LB.LBSTNRLO" Value="5"/>
      <ItemData ItemOID="IT.LB.LBSTNRHI" Value="8"/>
      <ItemData ItemOID="IT.LB.LBNRIND" Value="NORMAL"/>
      <ItemData ItemOID="IT.LB.LBLOBXFL" Value="Y"/>
      <ItemData ItemOID="IT.LB.VISITNUM" Value="1"/>
      <ItemData ItemOID="IT.LB.VISIT" Value="SCREENING 1"/>
      <ItemData ItemOID="IT.LB.EPOCH" Value="SCREENING"/>
      <ItemData ItemOID="IT.LB.LBDTC" Value="2012-12-31T11:05"/>
      <ItemData ItemOID="IT.LB.LBDY" Value="-5"/>
    </ItemGroupData>
    <ItemGroupData ItemGroupOID="IG.LB" data:ItemGroupDataSeq="111">
      <ItemData ItemOID="IT.LB.STUDYID" Value="CDISCPILOT01"/>
      <ItemData ItemOID="IT.LB.DOMAIN" Value="LB"/>
      <ItemData ItemOID="IT.LB.USUBJID" Value="CDISC007"/>
      <ItemData ItemOID="IT.LB.LBSEQ" Value="32"/>
      <ItemData ItemOID="IT.LB.LBTESTCD" Value="SPGRAV"/>
      <ItemData ItemOID="IT.LB.LBTEST" Value="Specific Gravity"/>
      <ItemData ItemOID="IT.LB.LBCAT" Value="URINALYSIS"/>
      <ItemData ItemOID="IT.LB.LBORRES" Value="1.015"/>
      <ItemData ItemOID="IT.LB.LBORNRLO" Value="1.006"/>
      <ItemData ItemOID="IT.LB.LBORNRHI" Value="1.03"/>
      <ItemData ItemOID="IT.LB.LBSTRESC" Value="1.015"/>
      <ItemData ItemOID="IT.LB.LBSTRESN" Value="1.015"/>
      <ItemData ItemOID="IT.LB.LBSTNRLO" Value="1.006"/>
      <ItemData ItemOID="IT.LB.LBSTNRHI" Value="1.03"/>
      <ItemData ItemOID="IT.LB.LBNRIND" Value="NORMAL"/>
      <ItemData ItemOID="IT.LB.LBLOBXFL" Value="Y"/>
      <ItemData ItemOID="IT.LB.VISITNUM" Value="1"/>
      <ItemData ItemOID="IT.LB.VISIT" Value="SCREENING 1"/>
      <ItemData ItemOID="IT.LB.EPOCH" Value="SCREENING"/>
      <ItemData ItemOID="IT.LB.LBDTC" Value="2012-12-31T11:05"/>
      <ItemData ItemOID="IT.LB.LBDY" Value="-5"/>
    </ItemGroupData>
    <ItemGroupData ItemGroupOID="IG.LB" data:ItemGroupDataSeq="112">
      <ItemData ItemOID="IT.LB.STUDYID" Value="CDISCPILOT01"/>
      <ItemData ItemOID="IT.LB.DOMAIN" Value="LB"/>
      <ItemData ItemOID="IT.LB.USUBJID" Value="CDISC007"/>
      <ItemData ItemOID="IT.LB.LBSEQ" Value="33"/>
      <ItemData ItemOID="IT.LB.LBTESTCD" Value="TSH"/>
      <ItemData ItemOID="IT.LB.LBTEST" Value="Thyrotropin"/>
      <ItemData ItemOID="IT.LB.LBCAT" Value="OTHER"/>
      <ItemData ItemOID="IT.LB.LBORRES" Value="1.63"/>
      <ItemData ItemOID="IT.LB.LBORRESU" Value="mIU/L"/>
      <ItemData ItemOID="IT.LB.LBORNRLO" Value=".32"/>
      <ItemData ItemOID="IT.LB.LBORNRHI" Value="5"/>
      <ItemData ItemOID="IT.LB.LBSTRESC" Value="1.63"/>
      <ItemData ItemOID="IT.LB.LBSTRESN" Value="1.63"/>
      <ItemData ItemOID="IT.LB.LBSTRESU" Value="mU/L"/>
      <ItemData ItemOID="IT.LB.LBSTNRLO" Value="0.32"/>
      <ItemData ItemOID="IT.LB.LBSTNRHI" Value="5"/>
      <ItemData ItemOID="IT.LB.LBNRIND" Value="NORMAL"/>
      <ItemData ItemOID="IT.LB.LBLOBXFL" Value="Y"/>
      <ItemData ItemOID="IT.LB.VISITNUM" Value="1"/>
      <ItemData ItemOID="IT.LB.VISIT" Value="SCREENING 1"/>
      <ItemData ItemOID="IT.LB.EPOCH" Value="SCREENING"/>
      <ItemData ItemOID="IT.LB.LBDTC" Value="2012-12-31T11:05"/>
      <ItemData ItemOID="IT.LB.LBDY" Value="-5"/>
    </ItemGroupData>
    <ItemGroupData ItemGroupOID="IG.LB" data:ItemGroupDataSeq="113">
      <ItemData ItemOID="IT.LB.STUDYID" Value="CDISCPILOT01"/>
      <ItemData ItemOID="IT.LB.DOMAIN" Value="LB"/>
      <ItemData ItemOID="IT.LB.USUBJID" Value="CDISC007"/>
      <ItemData ItemOID="IT.LB.LBSEQ" Value="35"/>
      <ItemData ItemOID="IT.LB.LBTESTCD" Value="UROBIL"/>
      <ItemData ItemOID="IT.LB.LBTEST" Value="Urobilinogen"/>
      <ItemData ItemOID="IT.LB.LBCAT" Value="URINALYSIS"/>
      <ItemData ItemOID="IT.LB.LBORRES" Value="0"/>
      <ItemData ItemOID="IT.LB.LBSTRESC" Value="0"/>
      <ItemData ItemOID="IT.LB.LBSTRESN" Value="0"/>
      <ItemData ItemOID="IT.LB.LBNRIND" Value="NORMAL"/>
      <ItemData ItemOID="IT.LB.LBLOBXFL" Value="Y"/>
      <ItemData ItemOID="IT.LB.VISITNUM" Value="1"/>
      <ItemData ItemOID="IT.LB.VISIT" Value="SCREENING 1"/>
      <ItemData ItemOID="IT.LB.EPOCH" Value="SCREENING"/>
      <ItemData ItemOID="IT.LB.LBDTC" Value="2012-12-31T11:05"/>
      <ItemData ItemOID="IT.LB.LBDY" Value="-5"/>
    </ItemGroupData>
    <ItemGroupData ItemGroupOID="IG.LB" data:ItemGroupDataSeq="114">
      <ItemData ItemOID="IT.LB.STUDYID" Value="CDISCPILOT01"/>
      <ItemData ItemOID="IT.LB.DOMAIN" Value="LB"/>
      <ItemData ItemOID="IT.LB.USUBJID" Value="CDISC007"/>
      <ItemData ItemOID="IT.LB.LBSEQ" Value="36"/>
      <ItemData ItemOID="IT.LB.LBTESTCD" Value="VITB12"/>
      <ItemData ItemOID="IT.LB.LBTEST" Value="Vitamin B12"/>
      <ItemData ItemOID="IT.LB.LBCAT" Value="OTHER"/>
      <ItemData ItemOID="IT.LB.LBORRES" Value="294"/>
      <ItemData ItemOID="IT.LB.LBORRESU" Value="ng/L"/>
      <ItemData ItemOID="IT.LB.LBORNRLO" Value="200"/>
      <ItemData ItemOID="IT.LB.LBORNRHI" Value="900"/>
      <ItemData ItemOID="IT.LB.LBSTRESC" Value="216.9132"/>
      <ItemData ItemOID="IT.LB.LBSTRESN" Value="216.9132"/>
      <ItemData ItemOID="IT.LB.LBSTRESU" Value="pmol/L"/>
      <ItemData ItemOID="IT.LB.LBSTNRLO" Value="148"/>
      <ItemData ItemOID="IT.LB.LBSTNRHI" Value="664"/>
      <ItemData ItemOID="IT.LB.LBNRIND" Value="NORMAL"/>
      <ItemData ItemOID="IT.LB.LBLOBXFL" Value="Y"/>
      <ItemData ItemOID="IT.LB.VISITNUM" Value="1"/>
      <ItemData ItemOID="IT.LB.VISIT" Value="SCREENING 1"/>
      <ItemData ItemOID="IT.LB.EPOCH" Value="SCREENING"/>
      <ItemData ItemOID="IT.LB.LBDTC" Value="2012-12-31T11:05"/>
      <ItemData ItemOID="IT.LB.LBDY" Value="-5"/>
    </ItemGroupData>
    <ItemGroupData ItemGroupOID="IG.LB" data:ItemGroupDataSeq="115">
      <ItemData ItemOID="IT.LB.STUDYID" Value="CDISCPILOT01"/>
      <ItemData ItemOID="IT.LB.DOMAIN" Value="LB"/>
      <ItemData ItemOID="IT.LB.USUBJID" Value="CDISC007"/>
      <ItemData ItemOID="IT.LB.LBSEQ" Value="49"/>
      <ItemData ItemOID="IT.LB.LBTESTCD" Value="COLOR"/>
      <ItemData ItemOID="IT.LB.LBTEST" Value="Color"/>
      <ItemData ItemOID="IT.LB.LBCAT" Value="URINALYSIS"/>
      <ItemData ItemOID="IT.LB.LBORRES" Value="NORMAL"/>
      <ItemData ItemOID="IT.LB.LBSTRESC" Value="NORMAL"/>
      <ItemData ItemOID="IT.LB.LBNRIND" Value="NORMAL"/>
      <ItemData ItemOID="IT.LB.VISITNUM" Value="4"/>
      <ItemData ItemOID="IT.LB.VISIT" Value="WEEK 2"/>
      <ItemData ItemOID="IT.LB.EPOCH" Value="TREATMENT"/>
      <ItemData ItemOID="IT.LB.LBDTC" Value="2013-01-18T14:19"/>
      <ItemData ItemOID="IT.LB.LBDY" Value="14"/>
    </ItemGroupData>
    <ItemGroupData ItemGroupOID="IG.LB" data:ItemGroupDataSeq="116">
      <ItemData ItemOID="IT.LB.STUDYID" Value="CDISCPILOT01"/>
      <ItemData ItemOID="IT.LB.DOMAIN" Value="LB"/>
      <ItemData ItemOID="IT.LB.USUBJID" Value="CDISC007"/>
      <ItemData ItemOID="IT.LB.LBSEQ" Value="57"/>
      <ItemData ItemOID="IT.LB.LBTESTCD" Value="KETONES"/>
      <ItemData ItemOID="IT.LB.LBTEST" Value="Ketones"/>
      <ItemData ItemOID="IT.LB.LBCAT" Value="URINALYSIS"/>
      <ItemData ItemOID="IT.LB.LBORRES" Value="0"/>
      <ItemData ItemOID="IT.LB.LBSTRESC" Value="0"/>
      <ItemData ItemOID="IT.LB.LBSTRESN" Value="0"/>
      <ItemData ItemOID="IT.LB.LBNRIND" Value="NORMAL"/>
      <ItemData ItemOID="IT.LB.VISITNUM" Value="4"/>
      <ItemData ItemOID="IT.LB.VISIT" Value="WEEK 2"/>
      <ItemData ItemOID="IT.LB.EPOCH" Value="TREATMENT"/>
      <ItemData ItemOID="IT.LB.LBDTC" Value="2013-01-18T14:19"/>
      <ItemData ItemOID="IT.LB.LBDY" Value="14"/>
    </ItemGroupData>
    <ItemGroupData ItemGroupOID="IG.LB" data:ItemGroupDataSeq="117">
      <ItemData ItemOID="IT.LB.STUDYID" Value="CDISCPILOT01"/>
      <ItemData ItemOID="IT.LB.DOMAIN" Value="LB"/>
      <ItemData ItemOID="IT.LB.USUBJID" Value="CDISC007"/>
      <ItemData ItemOID="IT.LB.LBSEQ" Value="64"/>
      <ItemData ItemOID="IT.LB.LBTESTCD" Value="PH"/>
      <ItemData ItemOID="IT.LB.LBTEST" Value="pH"/>
      <ItemData ItemOID="IT.LB.LBCAT" Value="URINALYSIS"/>
      <ItemData ItemOID="IT.LB.LBORRES" Value="5"/>
      <ItemData ItemOID="IT.LB.LBORNRLO" Value="5"/>
      <ItemData ItemOID="IT.LB.LBORNRHI" Value="8"/>
      <ItemData ItemOID="IT.LB.LBSTRESC" Value="5"/>
      <ItemData ItemOID="IT.LB.LBSTRESN" Value="5"/>
      <ItemData ItemOID="IT.LB.LBSTNRLO" Value="5"/>
      <ItemData ItemOID="IT.LB.LBSTNRHI" Value="8"/>
      <ItemData ItemOID="IT.LB.LBNRIND" Value="NORMAL"/>
      <ItemData ItemOID="IT.LB.VISITNUM" Value="4"/>
      <ItemData ItemOID="IT.LB.VISIT" Value="WEEK 2"/>
      <ItemData ItemOID="IT.LB.EPOCH" Value="TREATMENT"/>
      <ItemData ItemOID="IT.LB.LBDTC" Value="2013-01-18T14:19"/>
      <ItemData ItemOID="IT.LB.LBDY" Value="14"/>
    </ItemGroupData>
    <ItemGroupData ItemGroupOID="IG.LB" data:ItemGroupDataSeq="118">
      <ItemData ItemOID="IT.LB.STUDYID" Value="CDISCPILOT01"/>
      <ItemData ItemOID="IT.LB.DOMAIN" Value="LB"/>
      <ItemData ItemOID="IT.LB.USUBJID" Value="CDISC007"/>
      <ItemData ItemOID="IT.LB.LBSEQ" Value="69"/>
      <ItemData ItemOID="IT.LB.LBTESTCD" Value="SPGRAV"/>
      <ItemData ItemOID="IT.LB.LBTEST" Value="Specific Gravity"/>
      <ItemData ItemOID="IT.LB.LBCAT" Value="URINALYSIS"/>
      <ItemData ItemOID="IT.LB.LBORRES" Value="1.013"/>
      <ItemData ItemOID="IT.LB.LBORNRLO" Value="1.006"/>
      <ItemData ItemOID="IT.LB.LBORNRHI" Value="1.03"/>
      <ItemData ItemOID="IT.LB.LBSTRESC" Value="1.013"/>
      <ItemData ItemOID="IT.LB.LBSTRESN" Value="1.013"/>
      <ItemData ItemOID="IT.LB.LBSTNRLO" Value="1.006"/>
      <ItemData ItemOID="IT.LB.LBSTNRHI" Value="1.03"/>
      <ItemData ItemOID="IT.LB.LBNRIND" Value="NORMAL"/>
      <ItemData ItemOID="IT.LB.VISITNUM" Value="4"/>
      <ItemData ItemOID="IT.LB.VISIT" Value="WEEK 2"/>
      <ItemData ItemOID="IT.LB.EPOCH" Value="TREATMENT"/>
      <ItemData ItemOID="IT.LB.LBDTC" Value="2013-01-18T14:19"/>
      <ItemData ItemOID="IT.LB.LBDY" Value="14"/>
    </ItemGroupData>
    <ItemGroupData ItemGroupOID="IG.LB" data:ItemGroupDataSeq="119">
      <ItemData ItemOID="IT.LB.STUDYID" Value="CDISCPILOT01"/>
      <ItemData ItemOID="IT.LB.DOMAIN" Value="LB"/>
      <ItemData ItemOID="IT.LB.USUBJID" Value="CDISC007"/>
      <ItemData ItemOID="IT.LB.LBSEQ" Value="71"/>
      <ItemData ItemOID="IT.LB.LBTESTCD" Value="UROBIL"/>
      <ItemData ItemOID="IT.LB.LBTEST" Value="Urobilinogen"/>
      <ItemData ItemOID="IT.LB.LBCAT" Value="URINALYSIS"/>
      <ItemData ItemOID="IT.LB.LBORRES" Value="0"/>
      <ItemData ItemOID="IT.LB.LBSTRESC" Value="0"/>
      <ItemData ItemOID="IT.LB.LBSTRESN" Value="0"/>
      <ItemData ItemOID="IT.LB.LBNRIND" Value="NORMAL"/>
      <ItemData ItemOID="IT.LB.VISITNUM" Value="4"/>
      <ItemData ItemOID="IT.LB.VISIT" Value="WEEK 2"/>
      <ItemData ItemOID="IT.LB.EPOCH" Value="TREATMENT"/>
      <ItemData ItemOID="IT.LB.LBDTC" Value="2013-01-18T14:19"/>
      <ItemData ItemOID="IT.LB.LBDY" Value="14"/>
    </ItemGroupData>
    <ItemGroupData ItemGroupOID="IG.LB" data:ItemGroupDataSeq="120">
      <ItemData ItemOID="IT.LB.STUDYID" Value="CDISCPILOT01"/>
      <ItemData ItemOID="IT.LB.DOMAIN" Value="LB"/>
      <ItemData ItemOID="IT.LB.USUBJID" Value="CDISC007"/>
      <ItemData ItemOID="IT.LB.LBSEQ" Value="114"/>
      <ItemData ItemOID="IT.LB.LBTESTCD" Value="COLOR"/>
      <ItemData ItemOID="IT.LB.LBTEST" Value="Color"/>
      <ItemData ItemOID="IT.LB.LBCAT" Value="URINALYSIS"/>
      <ItemData ItemOID="IT.LB.LBORRES" Value="NORMAL"/>
      <ItemData ItemOID="IT.LB.LBSTRESC" Value="NORMAL"/>
      <ItemData ItemOID="IT.LB.LBNRIND" Value="NORMAL"/>
      <ItemData ItemOID="IT.LB.VISITNUM" Value="7"/>
      <ItemData ItemOID="IT.LB.VISIT" Value="WEEK 6"/>
      <ItemData ItemOID="IT.LB.EPOCH" Value="TREATMENT"/>
      <ItemData ItemOID="IT.LB.LBDTC" Value="2013-02-13T15:53"/>
      <ItemData ItemOID="IT.LB.LBDY" Value="40"/>
    </ItemGroupData>
    <ItemGroupData ItemGroupOID="IG.LB" data:ItemGroupDataSeq="121">
      <ItemData ItemOID="IT.LB.STUDYID" Value="CDISCPILOT01"/>
      <ItemData ItemOID="IT.LB.DOMAIN" Value="LB"/>
      <ItemData ItemOID="IT.LB.USUBJID" Value="CDISC007"/>
      <ItemData ItemOID="IT.LB.LBSEQ" Value="122"/>
      <ItemData ItemOID="IT.LB.LBTESTCD" Value="KETONES"/>
      <ItemData ItemOID="IT.LB.LBTEST" Value="Ketones"/>
      <ItemData ItemOID="IT.LB.LBCAT" Value="URINALYSIS"/>
      <ItemData ItemOID="IT.LB.LBORRES" Value="0"/>
      <ItemData ItemOID="IT.LB.LBSTRESC" Value="0"/>
      <ItemData ItemOID="IT.LB.LBSTRESN" Value="0"/>
      <ItemData ItemOID="IT.LB.LBNRIND" Value="NORMAL"/>
      <ItemData ItemOID="IT.LB.VISITNUM" Value="7"/>
      <ItemData ItemOID="IT.LB.VISIT" Value="WEEK 6"/>
      <ItemData ItemOID="IT.LB.EPOCH" Value="TREATMENT"/>
      <ItemData ItemOID="IT.LB.LBDTC" Value="2013-02-13T15:53"/>
      <ItemData ItemOID="IT.LB.LBDY" Value="40"/>
    </ItemGroupData>
    <ItemGroupData ItemGroupOID="IG.LB" data:ItemGroupDataSeq="122">
      <ItemData ItemOID="IT.LB.STUDYID" Value="CDISCPILOT01"/>
      <ItemData ItemOID="IT.LB.DOMAIN" Value="LB"/>
      <ItemData ItemOID="IT.LB.USUBJID" Value="CDISC007"/>
      <ItemData ItemOID="IT.LB.LBSEQ" Value="129"/>
      <ItemData ItemOID="IT.LB.LBTESTCD" Value="PH"/>
      <ItemData ItemOID="IT.LB.LBTEST" Value="pH"/>
      <ItemData ItemOID="IT.LB.LBCAT" Value="URINALYSIS"/>
      <ItemData ItemOID="IT.LB.LBORRES" Value="5"/>
      <ItemData ItemOID="IT.LB.LBORNRLO" Value="5"/>
      <ItemData ItemOID="IT.LB.LBORNRHI" Value="8"/>
      <ItemData ItemOID="IT.LB.LBSTRESC" Value="5"/>
      <ItemData ItemOID="IT.LB.LBSTRESN" Value="5"/>
      <ItemData ItemOID="IT.LB.LBSTNRLO" Value="5"/>
      <ItemData ItemOID="IT.LB.LBSTNRHI" Value="8"/>
      <ItemData ItemOID="IT.LB.LBNRIND" Value="NORMAL"/>
      <ItemData ItemOID="IT.LB.VISITNUM" Value="7"/>
      <ItemData ItemOID="IT.LB.VISIT" Value="WEEK 6"/>
      <ItemData ItemOID="IT.LB.EPOCH" Value="TREATMENT"/>
      <ItemData ItemOID="IT.LB.LBDTC" Value="2013-02-13T15:53"/>
      <ItemData ItemOID="IT.LB.LBDY" Value="40"/>
    </ItemGroupData>
    <ItemGroupData ItemGroupOID="IG.LB" data:ItemGroupDataSeq="123">
      <ItemData ItemOID="IT.LB.STUDYID" Value="CDISCPILOT01"/>
      <ItemData ItemOID="IT.LB.DOMAIN" Value="LB"/>
      <ItemData ItemOID="IT.LB.USUBJID" Value="CDISC007"/>
      <ItemData ItemOID="IT.LB.LBSEQ" Value="134"/>
      <ItemData ItemOID="IT.LB.LBTESTCD" Value="SPGRAV"/>
      <ItemData ItemOID="IT.LB.LBTEST" Value="Specific Gravity"/>
      <ItemData ItemOID="IT.LB.LBCAT" Value="URINALYSIS"/>
      <ItemData ItemOID="IT.LB.LBORRES" Value="1.028"/>
      <ItemData ItemOID="IT.LB.LBORNRLO" Value="1.006"/>
      <ItemData ItemOID="IT.LB.LBORNRHI" Value="1.03"/>
      <ItemData ItemOID="IT.LB.LBSTRESC" Value="1.028"/>
      <ItemData ItemOID="IT.LB.LBSTRESN" Value="1.028"/>
      <ItemData ItemOID="IT.LB.LBSTNRLO" Value="1.006"/>
      <ItemData ItemOID="IT.LB.LBSTNRHI" Value="1.03"/>
      <ItemData ItemOID="IT.LB.LBNRIND" Value="NORMAL"/>
      <ItemData ItemOID="IT.LB.VISITNUM" Value="7"/>
      <ItemData ItemOID="IT.LB.VISIT" Value="WEEK 6"/>
      <ItemData ItemOID="IT.LB.EPOCH" Value="TREATMENT"/>
      <ItemData ItemOID="IT.LB.LBDTC" Value="2013-02-13T15:53"/>
      <ItemData ItemOID="IT.LB.LBDY" Value="40"/>
    </ItemGroupData>
    <ItemGroupData ItemGroupOID="IG.LB" data:ItemGroupDataSeq="124">
      <ItemData ItemOID="IT.LB.STUDYID" Value="CDISCPILOT01"/>
      <ItemData ItemOID="IT.LB.DOMAIN" Value="LB"/>
      <ItemData ItemOID="IT.LB.USUBJID" Value="CDISC007"/>
      <ItemData ItemOID="IT.LB.LBSEQ" Value="136"/>
      <ItemData ItemOID="IT.LB.LBTESTCD" Value="UROBIL"/>
      <ItemData ItemOID="IT.LB.LBTEST" Value="Urobilinogen"/>
      <ItemData ItemOID="IT.LB.LBCAT" Value="URINALYSIS"/>
      <ItemData ItemOID="IT.LB.LBORRES" Value="0"/>
      <ItemData ItemOID="IT.LB.LBSTRESC" Value="0"/>
      <ItemData ItemOID="IT.LB.LBSTRESN" Value="0"/>
      <ItemData ItemOID="IT.LB.LBNRIND" Value="NORMAL"/>
      <ItemData ItemOID="IT.LB.VISITNUM" Value="7"/>
      <ItemData ItemOID="IT.LB.VISIT" Value="WEEK 6"/>
      <ItemData ItemOID="IT.LB.EPOCH" Value="TREATMENT"/>
      <ItemData ItemOID="IT.LB.LBDTC" Value="2013-02-13T15:53"/>
      <ItemData ItemOID="IT.LB.LBDY" Value="40"/>
    </ItemGroupData>
    <ItemGroupData ItemGroupOID="IG.LB" data:ItemGroupDataSeq="125">
      <ItemData ItemOID="IT.LB.STUDYID" Value="CDISCPILOT01"/>
      <ItemData ItemOID="IT.LB.DOMAIN" Value="LB"/>
      <ItemData ItemOID="IT.LB.USUBJID" Value="CDISC008"/>
      <ItemData ItemOID="IT.LB.LBSEQ" Value="12"/>
      <ItemData ItemOID="IT.LB.LBTESTCD" Value="COLOR"/>
      <ItemData ItemOID="IT.LB.LBTEST" Value="Color"/>
      <ItemData ItemOID="IT.LB.LBCAT" Value="URINALYSIS"/>
      <ItemData ItemOID="IT.LB.LBORRES" Value="NORMAL"/>
      <ItemData ItemOID="IT.LB.LBSTRESC" Value="NORMAL"/>
      <ItemData ItemOID="IT.LB.LBNRIND" Value="NORMAL"/>
      <ItemData ItemOID="IT.LB.LBLOBXFL" Value="Y"/>
      <ItemData ItemOID="IT.LB.VISITNUM" Value="1"/>
      <ItemData ItemOID="IT.LB.VISIT" Value="SCREENING 1"/>
      <ItemData ItemOID="IT.LB.EPOCH" Value="SCREENING"/>
      <ItemData ItemOID="IT.LB.LBDTC" Value="2014-05-01T12:17"/>
      <ItemData ItemOID="IT.LB.LBDY" Value="-10"/>
    </ItemGroupData>
    <ItemGroupData ItemGroupOID="IG.LB" data:ItemGroupDataSeq="126">
      <ItemData ItemOID="IT.LB.STUDYID" Value="CDISCPILOT01"/>
      <ItemData ItemOID="IT.LB.DOMAIN" Value="LB"/>
      <ItemData ItemOID="IT.LB.USUBJID" Value="CDISC008"/>
      <ItemData ItemOID="IT.LB.LBSEQ" Value="20"/>
      <ItemData ItemOID="IT.LB.LBTESTCD" Value="KETONES"/>
      <ItemData ItemOID="IT.LB.LBTEST" Value="Ketones"/>
      <ItemData ItemOID="IT.LB.LBCAT" Value="URINALYSIS"/>
      <ItemData ItemOID="IT.LB.LBORRES" Value="0"/>
      <ItemData ItemOID="IT.LB.LBSTRESC" Value="0"/>
      <ItemData ItemOID="IT.LB.LBSTRESN" Value="0"/>
      <ItemData ItemOID="IT.LB.LBNRIND" Value="NORMAL"/>
      <ItemData ItemOID="IT.LB.LBLOBXFL" Value="Y"/>
      <ItemData ItemOID="IT.LB.VISITNUM" Value="1"/>
      <ItemData ItemOID="IT.LB.VISIT" Value="SCREENING 1"/>
      <ItemData ItemOID="IT.LB.EPOCH" Value="SCREENING"/>
      <ItemData ItemOID="IT.LB.LBDTC" Value="2014-05-01T12:17"/>
      <ItemData ItemOID="IT.LB.LBDY" Value="-10"/>
    </ItemGroupData>
    <ItemGroupData ItemGroupOID="IG.LB" data:ItemGroupDataSeq="127">
      <ItemData ItemOID="IT.LB.STUDYID" Value="CDISCPILOT01"/>
      <ItemData ItemOID="IT.LB.DOMAIN" Value="LB"/>
      <ItemData ItemOID="IT.LB.USUBJID" Value="CDISC008"/>
      <ItemData ItemOID="IT.LB.LBSEQ" Value="27"/>
      <ItemData ItemOID="IT.LB.LBTESTCD" Value="PH"/>
      <ItemData ItemOID="IT.LB.LBTEST" Value="pH"/>
      <ItemData ItemOID="IT.LB.LBCAT" Value="URINALYSIS"/>
      <ItemData ItemOID="IT.LB.LBORRES" Value="6"/>
      <ItemData ItemOID="IT.LB.LBORNRLO" Value="5"/>
      <ItemData ItemOID="IT.LB.LBORNRHI" Value="8"/>
      <ItemData ItemOID="IT.LB.LBSTRESC" Value="6"/>
      <ItemData ItemOID="IT.LB.LBSTRESN" Value="6"/>
      <ItemData ItemOID="IT.LB.LBSTNRLO" Value="5"/>
      <ItemData ItemOID="IT.LB.LBSTNRHI" Value="8"/>
      <ItemData ItemOID="IT.LB.LBNRIND" Value="NORMAL"/>
      <ItemData ItemOID="IT.LB.LBLOBXFL" Value="Y"/>
      <ItemData ItemOID="IT.LB.VISITNUM" Value="1"/>
      <ItemData ItemOID="IT.LB.VISIT" Value="SCREENING 1"/>
      <ItemData ItemOID="IT.LB.EPOCH" Value="SCREENING"/>
      <ItemData ItemOID="IT.LB.LBDTC" Value="2014-05-01T12:17"/>
      <ItemData ItemOID="IT.LB.LBDY" Value="-10"/>
    </ItemGroupData>
    <ItemGroupData ItemGroupOID="IG.LB" data:ItemGroupDataSeq="128">
      <ItemData ItemOID="IT.LB.STUDYID" Value="CDISCPILOT01"/>
      <ItemData ItemOID="IT.LB.DOMAIN" Value="LB"/>
      <ItemData ItemOID="IT.LB.USUBJID" Value="CDISC008"/>
      <ItemData ItemOID="IT.LB.LBSEQ" Value="32"/>
      <ItemData ItemOID="IT.LB.LBTESTCD" Value="SPGRAV"/>
      <ItemData ItemOID="IT.LB.LBTEST" Value="Specific Gravity"/>
      <ItemData ItemOID="IT.LB.LBCAT" Value="URINALYSIS"/>
      <ItemData ItemOID="IT.LB.LBORRES" Value="1.018"/>
      <ItemData ItemOID="IT.LB.LBORNRLO" Value="1.006"/>
      <ItemData ItemOID="IT.LB.LBORNRHI" Value="1.03"/>
      <ItemData ItemOID="IT.LB.LBSTRESC" Value="1.018"/>
      <ItemData ItemOID="IT.LB.LBSTRESN" Value="1.018"/>
      <ItemData ItemOID="IT.LB.LBSTNRLO" Value="1.006"/>
      <ItemData ItemOID="IT.LB.LBSTNRHI" Value="1.03"/>
      <ItemData ItemOID="IT.LB.LBNRIND" Value="NORMAL"/>
      <ItemData ItemOID="IT.LB.LBLOBXFL" Value="Y"/>
      <ItemData ItemOID="IT.LB.VISITNUM" Value="1"/>
      <ItemData ItemOID="IT.LB.VISIT" Value="SCREENING 1"/>
      <ItemData ItemOID="IT.LB.EPOCH" Value="SCREENING"/>
      <ItemData ItemOID="IT.LB.LBDTC" Value="2014-05-01T12:17"/>
      <ItemData ItemOID="IT.LB.LBDY" Value="-10"/>
    </ItemGroupData>
    <ItemGroupData ItemGroupOID="IG.LB" data:ItemGroupDataSeq="129">
      <ItemData ItemOID="IT.LB.STUDYID" Value="CDISCPILOT01"/>
      <ItemData ItemOID="IT.LB.DOMAIN" Value="LB"/>
      <ItemData ItemOID="IT.LB.USUBJID" Value="CDISC008"/>
      <ItemData ItemOID="IT.LB.LBSEQ" Value="33"/>
      <ItemData ItemOID="IT.LB.LBTESTCD" Value="TSH"/>
      <ItemData ItemOID="IT.LB.LBTEST" Value="Thyrotropin"/>
      <ItemData ItemOID="IT.LB.LBCAT" Value="OTHER"/>
      <ItemData ItemOID="IT.LB.LBORRES" Value=".09"/>
      <ItemData ItemOID="IT.LB.LBORRESU" Value="mIU/L"/>
      <ItemData ItemOID="IT.LB.LBORNRLO" Value=".32"/>
      <ItemData ItemOID="IT.LB.LBORNRHI" Value="5"/>
      <ItemData ItemOID="IT.LB.LBSTRESC" Value=".09"/>
      <ItemData ItemOID="IT.LB.LBSTRESN" Value="0.09"/>
      <ItemData ItemOID="IT.LB.LBSTRESU" Value="mU/L"/>
      <ItemData ItemOID="IT.LB.LBSTNRLO" Value="0.32"/>
      <ItemData ItemOID="IT.LB.LBSTNRHI" Value="5"/>
      <ItemData ItemOID="IT.LB.LBNRIND" Value="LOW"/>
      <ItemData ItemOID="IT.LB.LBLOBXFL" Value="Y"/>
      <ItemData ItemOID="IT.LB.VISITNUM" Value="1"/>
      <ItemData ItemOID="IT.LB.VISIT" Value="SCREENING 1"/>
      <ItemData ItemOID="IT.LB.EPOCH" Value="SCREENING"/>
      <ItemData ItemOID="IT.LB.LBDTC" Value="2014-05-01T12:17"/>
      <ItemData ItemOID="IT.LB.LBDY" Value="-10"/>
    </ItemGroupData>
    <ItemGroupData ItemGroupOID="IG.LB" data:ItemGroupDataSeq="130">
      <ItemData ItemOID="IT.LB.STUDYID" Value="CDISCPILOT01"/>
      <ItemData ItemOID="IT.LB.DOMAIN" Value="LB"/>
      <ItemData ItemOID="IT.LB.USUBJID" Value="CDISC008"/>
      <ItemData ItemOID="IT.LB.LBSEQ" Value="35"/>
      <ItemData ItemOID="IT.LB.LBTESTCD" Value="UROBIL"/>
      <ItemData ItemOID="IT.LB.LBTEST" Value="Urobilinogen"/>
      <ItemData ItemOID="IT.LB.LBCAT" Value="URINALYSIS"/>
      <ItemData ItemOID="IT.LB.LBORRES" Value="0"/>
      <ItemData ItemOID="IT.LB.LBSTRESC" Value="0"/>
      <ItemData ItemOID="IT.LB.LBSTRESN" Value="0"/>
      <ItemData ItemOID="IT.LB.LBNRIND" Value="NORMAL"/>
      <ItemData ItemOID="IT.LB.LBLOBXFL" Value="Y"/>
      <ItemData ItemOID="IT.LB.VISITNUM" Value="1"/>
      <ItemData ItemOID="IT.LB.VISIT" Value="SCREENING 1"/>
      <ItemData ItemOID="IT.LB.EPOCH" Value="SCREENING"/>
      <ItemData ItemOID="IT.LB.LBDTC" Value="2014-05-01T12:17"/>
      <ItemData ItemOID="IT.LB.LBDY" Value="-10"/>
    </ItemGroupData>
    <ItemGroupData ItemGroupOID="IG.LB" data:ItemGroupDataSeq="131">
      <ItemData ItemOID="IT.LB.STUDYID" Value="CDISCPILOT01"/>
      <ItemData ItemOID="IT.LB.DOMAIN" Value="LB"/>
      <ItemData ItemOID="IT.LB.USUBJID" Value="CDISC008"/>
      <ItemData ItemOID="IT.LB.LBSEQ" Value="36"/>
      <ItemData ItemOID="IT.LB.LBTESTCD" Value="VITB12"/>
      <ItemData ItemOID="IT.LB.LBTEST" Value="Vitamin B12"/>
      <ItemData ItemOID="IT.LB.LBCAT" Value="OTHER"/>
      <ItemData ItemOID="IT.LB.LBORRES" Value="597"/>
      <ItemData ItemOID="IT.LB.LBORRESU" Value="ng/L"/>
      <ItemData ItemOID="IT.LB.LBORNRLO" Value="200"/>
      <ItemData ItemOID="IT.LB.LBORNRHI" Value="900"/>
      <ItemData ItemOID="IT.LB.LBSTRESC" Value="440.4666"/>
      <ItemData ItemOID="IT.LB.LBSTRESN" Value="440.4666"/>
      <ItemData ItemOID="IT.LB.LBSTRESU" Value="pmol/L"/>
      <ItemData ItemOID="IT.LB.LBSTNRLO" Value="148"/>
      <ItemData ItemOID="IT.LB.LBSTNRHI" Value="664"/>
      <ItemData ItemOID="IT.LB.LBNRIND" Value="NORMAL"/>
      <ItemData ItemOID="IT.LB.LBLOBXFL" Value="Y"/>
      <ItemData ItemOID="IT.LB.VISITNUM" Value="1"/>
      <ItemData ItemOID="IT.LB.VISIT" Value="SCREENING 1"/>
      <ItemData ItemOID="IT.LB.EPOCH" Value="SCREENING"/>
      <ItemData ItemOID="IT.LB.LBDTC" Value="2014-05-01T12:17"/>
      <ItemData ItemOID="IT.LB.LBDY" Value="-10"/>
    </ItemGroupData>
    <ItemGroupData ItemGroupOID="IG.LB" data:ItemGroupDataSeq="132">
      <ItemData ItemOID="IT.LB.STUDYID" Value="CDISCPILOT01"/>
      <ItemData ItemOID="IT.LB.DOMAIN" Value="LB"/>
      <ItemData ItemOID="IT.LB.USUBJID" Value="CDISC008"/>
      <ItemData ItemOID="IT.LB.LBSEQ" Value="49"/>
      <ItemData ItemOID="IT.LB.LBTESTCD" Value="TSH"/>
      <ItemData ItemOID="IT.LB.LBTEST" Value="Thyrotropin"/>
      <ItemData ItemOID="IT.LB.LBCAT" Value="OTHER"/>
      <ItemData ItemOID="IT.LB.LBORRES" Value=".12"/>
      <ItemData ItemOID="IT.LB.LBORRESU" Value="mIU/L"/>
      <ItemData ItemOID="IT.LB.LBORNRLO" Value=".32"/>
      <ItemData ItemOID="IT.LB.LBORNRHI" Value="5"/>
      <ItemData ItemOID="IT.LB.LBSTRESC" Value=".12"/>
      <ItemData ItemOID="IT.LB.LBSTRESN" Value="0.12"/>
      <ItemData ItemOID="IT.LB.LBSTRESU" Value="mU/L"/>
      <ItemData ItemOID="IT.LB.LBSTNRLO" Value="0.32"/>
      <ItemData ItemOID="IT.LB.LBSTNRHI" Value="5"/>
      <ItemData ItemOID="IT.LB.LBNRIND" Value="LOW"/>
      <ItemData ItemOID="IT.LB.VISITNUM" Value="1.01"/>
      <ItemData ItemOID="IT.LB.VISIT" Value="SCREENING 1: UNSCHEDULED 01"/>
      <ItemData ItemOID="IT.LB.EPOCH" Value="SCREENING"/>
      <ItemData ItemOID="IT.LB.LBDTC" Value="2014-05-03T15:00"/>
      <ItemData ItemOID="IT.LB.LBDY" Value="-8"/>
    </ItemGroupData>
    <ItemGroupData ItemGroupOID="IG.LB" data:ItemGroupDataSeq="133">
      <ItemData ItemOID="IT.LB.STUDYID" Value="CDISCPILOT01"/>
      <ItemData ItemOID="IT.LB.DOMAIN" Value="LB"/>
      <ItemData ItemOID="IT.LB.USUBJID" Value="CDISC008"/>
      <ItemData ItemOID="IT.LB.LBSEQ" Value="63"/>
      <ItemData ItemOID="IT.LB.LBTESTCD" Value="COLOR"/>
      <ItemData ItemOID="IT.LB.LBTEST" Value="Color"/>
      <ItemData ItemOID="IT.LB.LBCAT" Value="URINALYSIS"/>
      <ItemData ItemOID="IT.LB.LBORRES" Value="NORMAL"/>
      <ItemData ItemOID="IT.LB.LBSTRESC" Value="NORMAL"/>
      <ItemData ItemOID="IT.LB.LBNRIND" Value="NORMAL"/>
      <ItemData ItemOID="IT.LB.VISITNUM" Value="4"/>
      <ItemData ItemOID="IT.LB.VISIT" Value="WEEK 2"/>
      <ItemData ItemOID="IT.LB.EPOCH" Value="TREATMENT"/>
      <ItemData ItemOID="IT.LB.LBDTC" Value="2014-05-25T09:16"/>
      <ItemData ItemOID="IT.LB.LBDY" Value="15"/>
    </ItemGroupData>
    <ItemGroupData ItemGroupOID="IG.LB" data:ItemGroupDataSeq="134">
      <ItemData ItemOID="IT.LB.STUDYID" Value="CDISCPILOT01"/>
      <ItemData ItemOID="IT.LB.DOMAIN" Value="LB"/>
      <ItemData ItemOID="IT.LB.USUBJID" Value="CDISC008"/>
      <ItemData ItemOID="IT.LB.LBSEQ" Value="71"/>
      <ItemData ItemOID="IT.LB.LBTESTCD" Value="KETONES"/>
      <ItemData ItemOID="IT.LB.LBTEST" Value="Ketones"/>
      <ItemData ItemOID="IT.LB.LBCAT" Value="URINALYSIS"/>
      <ItemData ItemOID="IT.LB.LBORRES" Value="0"/>
      <ItemData ItemOID="IT.LB.LBSTRESC" Value="0"/>
      <ItemData ItemOID="IT.LB.LBSTRESN" Value="0"/>
      <ItemData ItemOID="IT.LB.LBNRIND" Value="NORMAL"/>
      <ItemData ItemOID="IT.LB.VISITNUM" Value="4"/>
      <ItemData ItemOID="IT.LB.VISIT" Value="WEEK 2"/>
      <ItemData ItemOID="IT.LB.EPOCH" Value="TREATMENT"/>
      <ItemData ItemOID="IT.LB.LBDTC" Value="2014-05-25T09:16"/>
      <ItemData ItemOID="IT.LB.LBDY" Value="15"/>
    </ItemGroupData>
    <ItemGroupData ItemGroupOID="IG.LB" data:ItemGroupDataSeq="135">
      <ItemData ItemOID="IT.LB.STUDYID" Value="CDISCPILOT01"/>
      <ItemData ItemOID="IT.LB.DOMAIN" Value="LB"/>
      <ItemData ItemOID="IT.LB.USUBJID" Value="CDISC008"/>
      <ItemData ItemOID="IT.LB.LBSEQ" Value="78"/>
      <ItemData ItemOID="IT.LB.LBTESTCD" Value="PH"/>
      <ItemData ItemOID="IT.LB.LBTEST" Value="pH"/>
      <ItemData ItemOID="IT.LB.LBCAT" Value="URINALYSIS"/>
      <ItemData ItemOID="IT.LB.LBORRES" Value="6"/>
      <ItemData ItemOID="IT.LB.LBORNRLO" Value="5"/>
      <ItemData ItemOID="IT.LB.LBORNRHI" Value="8"/>
      <ItemData ItemOID="IT.LB.LBSTRESC" Value="6"/>
      <ItemData ItemOID="IT.LB.LBSTRESN" Value="6"/>
      <ItemData ItemOID="IT.LB.LBSTNRLO" Value="5"/>
      <ItemData ItemOID="IT.LB.LBSTNRHI" Value="8"/>
      <ItemData ItemOID="IT.LB.LBNRIND" Value="NORMAL"/>
      <ItemData ItemOID="IT.LB.VISITNUM" Value="4"/>
      <ItemData ItemOID="IT.LB.VISIT" Value="WEEK 2"/>
      <ItemData ItemOID="IT.LB.EPOCH" Value="TREATMENT"/>
      <ItemData ItemOID="IT.LB.LBDTC" Value="2014-05-25T09:16"/>
      <ItemData ItemOID="IT.LB.LBDY" Value="15"/>
    </ItemGroupData>
    <ItemGroupData ItemGroupOID="IG.LB" data:ItemGroupDataSeq="136">
      <ItemData ItemOID="IT.LB.STUDYID" Value="CDISCPILOT01"/>
      <ItemData ItemOID="IT.LB.DOMAIN" Value="LB"/>
      <ItemData ItemOID="IT.LB.USUBJID" Value="CDISC008"/>
      <ItemData ItemOID="IT.LB.LBSEQ" Value="84"/>
      <ItemData ItemOID="IT.LB.LBTESTCD" Value="SPGRAV"/>
      <ItemData ItemOID="IT.LB.LBTEST" Value="Specific Gravity"/>
      <ItemData ItemOID="IT.LB.LBCAT" Value="URINALYSIS"/>
      <ItemData ItemOID="IT.LB.LBORRES" Value="1.017"/>
      <ItemData ItemOID="IT.LB.LBORNRLO" Value="1.006"/>
      <ItemData ItemOID="IT.LB.LBORNRHI" Value="1.03"/>
      <ItemData ItemOID="IT.LB.LBSTRESC" Value="1.017"/>
      <ItemData ItemOID="IT.LB.LBSTRESN" Value="1.017"/>
      <ItemData ItemOID="IT.LB.LBSTNRLO" Value="1.006"/>
      <ItemData ItemOID="IT.LB.LBSTNRHI" Value="1.03"/>
      <ItemData ItemOID="IT.LB.LBNRIND" Value="NORMAL"/>
      <ItemData ItemOID="IT.LB.VISITNUM" Value="4"/>
      <ItemData ItemOID="IT.LB.VISIT" Value="WEEK 2"/>
      <ItemData ItemOID="IT.LB.EPOCH" Value="TREATMENT"/>
      <ItemData ItemOID="IT.LB.LBDTC" Value="2014-05-25T09:16"/>
      <ItemData ItemOID="IT.LB.LBDY" Value="15"/>
    </ItemGroupData>
    <ItemGroupData ItemGroupOID="IG.LB" data:ItemGroupDataSeq="137">
      <ItemData ItemOID="IT.LB.STUDYID" Value="CDISCPILOT01"/>
      <ItemData ItemOID="IT.LB.DOMAIN" Value="LB"/>
      <ItemData ItemOID="IT.LB.USUBJID" Value="CDISC008"/>
      <ItemData ItemOID="IT.LB.LBSEQ" Value="86"/>
      <ItemData ItemOID="IT.LB.LBTESTCD" Value="UROBIL"/>
      <ItemData ItemOID="IT.LB.LBTEST" Value="Urobilinogen"/>
      <ItemData ItemOID="IT.LB.LBCAT" Value="URINALYSIS"/>
      <ItemData ItemOID="IT.LB.LBORRES" Value="0"/>
      <ItemData ItemOID="IT.LB.LBSTRESC" Value="0"/>
      <ItemData ItemOID="IT.LB.LBSTRESN" Value="0"/>
      <ItemData ItemOID="IT.LB.LBNRIND" Value="NORMAL"/>
      <ItemData ItemOID="IT.LB.VISITNUM" Value="4"/>
      <ItemData ItemOID="IT.LB.VISIT" Value="WEEK 2"/>
      <ItemData ItemOID="IT.LB.EPOCH" Value="TREATMENT"/>
      <ItemData ItemOID="IT.LB.LBDTC" Value="2014-05-25T09:16"/>
      <ItemData ItemOID="IT.LB.LBDY" Value="15"/>
    </ItemGroupData>
    <ItemGroupData ItemGroupOID="IG.LB" data:ItemGroupDataSeq="138">
      <ItemData ItemOID="IT.LB.STUDYID" Value="CDISCPILOT01"/>
      <ItemData ItemOID="IT.LB.DOMAIN" Value="LB"/>
      <ItemData ItemOID="IT.LB.USUBJID" Value="CDISC008"/>
      <ItemData ItemOID="IT.LB.LBSEQ" Value="189"/>
      <ItemData ItemOID="IT.LB.LBTESTCD" Value="COLOR"/>
      <ItemData ItemOID="IT.LB.LBTEST" Value="Color"/>
      <ItemData ItemOID="IT.LB.LBCAT" Value="URINALYSIS"/>
      <ItemData ItemOID="IT.LB.LBORRES" Value="NORMAL"/>
      <ItemData ItemOID="IT.LB.LBSTRESC" Value="NORMAL"/>
      <ItemData ItemOID="IT.LB.LBNRIND" Value="NORMAL"/>
      <ItemData ItemOID="IT.LB.VISITNUM" Value="9"/>
      <ItemData ItemOID="IT.LB.VISIT" Value="WEEK 12"/>
      <ItemData ItemOID="IT.LB.EPOCH" Value="TREATMENT"/>
      <ItemData ItemOID="IT.LB.LBDTC" Value="2014-08-06T15:45"/>
      <ItemData ItemOID="IT.LB.LBDY" Value="88"/>
    </ItemGroupData>
    <ItemGroupData ItemGroupOID="IG.LB" data:ItemGroupDataSeq="139">
      <ItemData ItemOID="IT.LB.STUDYID" Value="CDISCPILOT01"/>
      <ItemData ItemOID="IT.LB.DOMAIN" Value="LB"/>
      <ItemData ItemOID="IT.LB.USUBJID" Value="CDISC008"/>
      <ItemData ItemOID="IT.LB.LBSEQ" Value="197"/>
      <ItemData ItemOID="IT.LB.LBTESTCD" Value="KETONES"/>
      <ItemData ItemOID="IT.LB.LBTEST" Value="Ketones"/>
      <ItemData ItemOID="IT.LB.LBCAT" Value="URINALYSIS"/>
      <ItemData ItemOID="IT.LB.LBORRES" Value="0"/>
      <ItemData ItemOID="IT.LB.LBSTRESC" Value="0"/>
      <ItemData ItemOID="IT.LB.LBSTRESN" Value="0"/>
      <ItemData ItemOID="IT.LB.LBNRIND" Value="NORMAL"/>
      <ItemData ItemOID="IT.LB.VISITNUM" Value="9"/>
      <ItemData ItemOID="IT.LB.VISIT" Value="WEEK 12"/>
      <ItemData ItemOID="IT.LB.EPOCH" Value="TREATMENT"/>
      <ItemData ItemOID="IT.LB.LBDTC" Value="2014-08-06T15:45"/>
      <ItemData ItemOID="IT.LB.LBDY" Value="88"/>
    </ItemGroupData>
    <ItemGroupData ItemGroupOID="IG.LB" data:ItemGroupDataSeq="140">
      <ItemData ItemOID="IT.LB.STUDYID" Value="CDISCPILOT01"/>
      <ItemData ItemOID="IT.LB.DOMAIN" Value="LB"/>
      <ItemData ItemOID="IT.LB.USUBJID" Value="CDISC008"/>
      <ItemData ItemOID="IT.LB.LBSEQ" Value="204"/>
      <ItemData ItemOID="IT.LB.LBTESTCD" Value="PH"/>
      <ItemData ItemOID="IT.LB.LBTEST" Value="pH"/>
      <ItemData ItemOID="IT.LB.LBCAT" Value="URINALYSIS"/>
      <ItemData ItemOID="IT.LB.LBORRES" Value="5"/>
      <ItemData ItemOID="IT.LB.LBORNRLO" Value="5"/>
      <ItemData ItemOID="IT.LB.LBORNRHI" Value="8"/>
      <ItemData ItemOID="IT.LB.LBSTRESC" Value="5"/>
      <ItemData ItemOID="IT.LB.LBSTRESN" Value="5"/>
      <ItemData ItemOID="IT.LB.LBSTNRLO" Value="5"/>
      <ItemData ItemOID="IT.LB.LBSTNRHI" Value="8"/>
      <ItemData ItemOID="IT.LB.LBNRIND" Value="NORMAL"/>
      <ItemData ItemOID="IT.LB.VISITNUM" Value="9"/>
      <ItemData ItemOID="IT.LB.VISIT" Value="WEEK 12"/>
      <ItemData ItemOID="IT.LB.EPOCH" Value="TREATMENT"/>
      <ItemData ItemOID="IT.LB.LBDTC" Value="2014-08-06T15:45"/>
      <ItemData ItemOID="IT.LB.LBDY" Value="88"/>
    </ItemGroupData>
    <ItemGroupData ItemGroupOID="IG.LB" data:ItemGroupDataSeq="141">
      <ItemData ItemOID="IT.LB.STUDYID" Value="CDISCPILOT01"/>
      <ItemData ItemOID="IT.LB.DOMAIN" Value="LB"/>
      <ItemData ItemOID="IT.LB.USUBJID" Value="CDISC008"/>
      <ItemData ItemOID="IT.LB.LBSEQ" Value="209"/>
      <ItemData ItemOID="IT.LB.LBTESTCD" Value="SPGRAV"/>
      <ItemData ItemOID="IT.LB.LBTEST" Value="Specific Gravity"/>
      <ItemData ItemOID="IT.LB.LBCAT" Value="URINALYSIS"/>
      <ItemData ItemOID="IT.LB.LBORRES" Value="1.023"/>
      <ItemData ItemOID="IT.LB.LBORNRLO" Value="1.006"/>
      <ItemData ItemOID="IT.LB.LBORNRHI" Value="1.03"/>
      <ItemData ItemOID="IT.LB.LBSTRESC" Value="1.023"/>
      <ItemData ItemOID="IT.LB.LBSTRESN" Value="1.023"/>
      <ItemData ItemOID="IT.LB.LBSTNRLO" Value="1.006"/>
      <ItemData ItemOID="IT.LB.LBSTNRHI" Value="1.03"/>
      <ItemData ItemOID="IT.LB.LBNRIND" Value="NORMAL"/>
      <ItemData ItemOID="IT.LB.VISITNUM" Value="9"/>
      <ItemData ItemOID="IT.LB.VISIT" Value="WEEK 12"/>
      <ItemData ItemOID="IT.LB.EPOCH" Value="TREATMENT"/>
      <ItemData ItemOID="IT.LB.LBDTC" Value="2014-08-06T15:45"/>
      <ItemData ItemOID="IT.LB.LBDY" Value="88"/>
    </ItemGroupData>
    <ItemGroupData ItemGroupOID="IG.LB" data:ItemGroupDataSeq="142">
      <ItemData ItemOID="IT.LB.STUDYID" Value="CDISCPILOT01"/>
      <ItemData ItemOID="IT.LB.DOMAIN" Value="LB"/>
      <ItemData ItemOID="IT.LB.USUBJID" Value="CDISC008"/>
      <ItemData ItemOID="IT.LB.LBSEQ" Value="211"/>
      <ItemData ItemOID="IT.LB.LBTESTCD" Value="UROBIL"/>
      <ItemData ItemOID="IT.LB.LBTEST" Value="Urobilinogen"/>
      <ItemData ItemOID="IT.LB.LBCAT" Value="URINALYSIS"/>
      <ItemData ItemOID="IT.LB.LBORRES" Value="0"/>
      <ItemData ItemOID="IT.LB.LBSTRESC" Value="0"/>
      <ItemData ItemOID="IT.LB.LBSTRESN" Value="0"/>
      <ItemData ItemOID="IT.LB.LBNRIND" Value="NORMAL"/>
      <ItemData ItemOID="IT.LB.VISITNUM" Value="9"/>
      <ItemData ItemOID="IT.LB.VISIT" Value="WEEK 12"/>
      <ItemData ItemOID="IT.LB.EPOCH" Value="TREATMENT"/>
      <ItemData ItemOID="IT.LB.LBDTC" Value="2014-08-06T15:45"/>
      <ItemData ItemOID="IT.LB.LBDY" Value="88"/>
    </ItemGroupData>
    <ItemGroupData ItemGroupOID="IG.LB" data:ItemGroupDataSeq="143">
      <ItemData ItemOID="IT.LB.STUDYID" Value="CDISCPILOT01"/>
      <ItemData ItemOID="IT.LB.DOMAIN" Value="LB"/>
      <ItemData ItemOID="IT.LB.USUBJID" Value="CDISC008"/>
      <ItemData ItemOID="IT.LB.LBSEQ" Value="253"/>
      <ItemData ItemOID="IT.LB.LBTESTCD" Value="COLOR"/>
      <ItemData ItemOID="IT.LB.LBTEST" Value="Color"/>
      <ItemData ItemOID="IT.LB.LBCAT" Value="URINALYSIS"/>
      <ItemData ItemOID="IT.LB.LBORRES" Value="NORMAL"/>
      <ItemData ItemOID="IT.LB.LBSTRESC" Value="NORMAL"/>
      <ItemData ItemOID="IT.LB.LBNRIND" Value="NORMAL"/>
      <ItemData ItemOID="IT.LB.VISITNUM" Value="11"/>
      <ItemData ItemOID="IT.LB.VISIT" Value="WEEK 20"/>
      <ItemData ItemOID="IT.LB.EPOCH" Value="TREATMENT"/>
      <ItemData ItemOID="IT.LB.LBDTC" Value="2014-10-01T09:30"/>
      <ItemData ItemOID="IT.LB.LBDY" Value="144"/>
    </ItemGroupData>
    <ItemGroupData ItemGroupOID="IG.LB" data:ItemGroupDataSeq="144">
      <ItemData ItemOID="IT.LB.STUDYID" Value="CDISCPILOT01"/>
      <ItemData ItemOID="IT.LB.DOMAIN" Value="LB"/>
      <ItemData ItemOID="IT.LB.USUBJID" Value="CDISC008"/>
      <ItemData ItemOID="IT.LB.LBSEQ" Value="260"/>
      <ItemData ItemOID="IT.LB.LBTESTCD" Value="KETONES"/>
      <ItemData ItemOID="IT.LB.LBTEST" Value="Ketones"/>
      <ItemData ItemOID="IT.LB.LBCAT" Value="URINALYSIS"/>
      <ItemData ItemOID="IT.LB.LBORRES" Value="0"/>
      <ItemData ItemOID="IT.LB.LBSTRESC" Value="0"/>
      <ItemData ItemOID="IT.LB.LBSTRESN" Value="0"/>
      <ItemData ItemOID="IT.LB.LBNRIND" Value="NORMAL"/>
      <ItemData ItemOID="IT.LB.VISITNUM" Value="11"/>
      <ItemData ItemOID="IT.LB.VISIT" Value="WEEK 20"/>
      <ItemData ItemOID="IT.LB.EPOCH" Value="TREATMENT"/>
      <ItemData ItemOID="IT.LB.LBDTC" Value="2014-10-01T09:30"/>
      <ItemData ItemOID="IT.LB.LBDY" Value="144"/>
    </ItemGroupData>
    <ItemGroupData ItemGroupOID="IG.LB" data:ItemGroupDataSeq="145">
      <ItemData ItemOID="IT.LB.STUDYID" Value="CDISCPILOT01"/>
      <ItemData ItemOID="IT.LB.DOMAIN" Value="LB"/>
      <ItemData ItemOID="IT.LB.USUBJID" Value="CDISC008"/>
      <ItemData ItemOID="IT.LB.LBSEQ" Value="266"/>
      <ItemData ItemOID="IT.LB.LBTESTCD" Value="PH"/>
      <ItemData ItemOID="IT.LB.LBTEST" Value="pH"/>
      <ItemData ItemOID="IT.LB.LBCAT" Value="URINALYSIS"/>
      <ItemData ItemOID="IT.LB.LBORRES" Value="6"/>
      <ItemData ItemOID="IT.LB.LBORNRLO" Value="5"/>
      <ItemData ItemOID="IT.LB.LBORNRHI" Value="8"/>
      <ItemData ItemOID="IT.LB.LBSTRESC" Value="6"/>
      <ItemData ItemOID="IT.LB.LBSTRESN" Value="6"/>
      <ItemData ItemOID="IT.LB.LBSTNRLO" Value="5"/>
      <ItemData ItemOID="IT.LB.LBSTNRHI" Value="8"/>
      <ItemData ItemOID="IT.LB.LBNRIND" Value="NORMAL"/>
      <ItemData ItemOID="IT.LB.VISITNUM" Value="11"/>
      <ItemData ItemOID="IT.LB.VISIT" Value="WEEK 20"/>
      <ItemData ItemOID="IT.LB.EPOCH" Value="TREATMENT"/>
      <ItemData ItemOID="IT.LB.LBDTC" Value="2014-10-01T09:30"/>
      <ItemData ItemOID="IT.LB.LBDY" Value="144"/>
    </ItemGroupData>
    <ItemGroupData ItemGroupOID="IG.LB" data:ItemGroupDataSeq="146">
      <ItemData ItemOID="IT.LB.STUDYID" Value="CDISCPILOT01"/>
      <ItemData ItemOID="IT.LB.DOMAIN" Value="LB"/>
      <ItemData ItemOID="IT.LB.USUBJID" Value="CDISC008"/>
      <ItemData ItemOID="IT.LB.LBSEQ" Value="271"/>
      <ItemData ItemOID="IT.LB.LBTESTCD" Value="SPGRAV"/>
      <ItemData ItemOID="IT.LB.LBTEST" Value="Specific Gravity"/>
      <ItemData ItemOID="IT.LB.LBCAT" Value="URINALYSIS"/>
      <ItemData ItemOID="IT.LB.LBORRES" Value="1.023"/>
      <ItemData ItemOID="IT.LB.LBORNRLO" Value="1.006"/>
      <ItemData ItemOID="IT.LB.LBORNRHI" Value="1.03"/>
      <ItemData ItemOID="IT.LB.LBSTRESC" Value="1.023"/>
      <ItemData ItemOID="IT.LB.LBSTRESN" Value="1.023"/>
      <ItemData ItemOID="IT.LB.LBSTNRLO" Value="1.006"/>
      <ItemData ItemOID="IT.LB.LBSTNRHI" Value="1.03"/>
      <ItemData ItemOID="IT.LB.LBNRIND" Value="NORMAL"/>
      <ItemData ItemOID="IT.LB.VISITNUM" Value="11"/>
      <ItemData ItemOID="IT.LB.VISIT" Value="WEEK 20"/>
      <ItemData ItemOID="IT.LB.EPOCH" Value="TREATMENT"/>
      <ItemData ItemOID="IT.LB.LBDTC" Value="2014-10-01T09:30"/>
      <ItemData ItemOID="IT.LB.LBDY" Value="144"/>
    </ItemGroupData>
    <ItemGroupData ItemGroupOID="IG.LB" data:ItemGroupDataSeq="147">
      <ItemData ItemOID="IT.LB.STUDYID" Value="CDISCPILOT01"/>
      <ItemData ItemOID="IT.LB.DOMAIN" Value="LB"/>
      <ItemData ItemOID="IT.LB.USUBJID" Value="CDISC008"/>
      <ItemData ItemOID="IT.LB.LBSEQ" Value="273"/>
      <ItemData ItemOID="IT.LB.LBTESTCD" Value="UROBIL"/>
      <ItemData ItemOID="IT.LB.LBTEST" Value="Urobilinogen"/>
      <ItemData ItemOID="IT.LB.LBCAT" Value="URINALYSIS"/>
      <ItemData ItemOID="IT.LB.LBORRES" Value="0"/>
      <ItemData ItemOID="IT.LB.LBSTRESC" Value="0"/>
      <ItemData ItemOID="IT.LB.LBSTRESN" Value="0"/>
      <ItemData ItemOID="IT.LB.LBNRIND" Value="NORMAL"/>
      <ItemData ItemOID="IT.LB.VISITNUM" Value="11"/>
      <ItemData ItemOID="IT.LB.VISIT" Value="WEEK 20"/>
      <ItemData ItemOID="IT.LB.EPOCH" Value="TREATMENT"/>
      <ItemData ItemOID="IT.LB.LBDTC" Value="2014-10-01T09:30"/>
      <ItemData ItemOID="IT.LB.LBDY" Value="144"/>
    </ItemGroupData>
    <ItemGroupData ItemGroupOID="IG.LB" data:ItemGroupDataSeq="148">
      <ItemData ItemOID="IT.LB.STUDYID" Value="CDISCPILOT01"/>
      <ItemData ItemOID="IT.LB.DOMAIN" Value="LB"/>
      <ItemData ItemOID="IT.LB.USUBJID" Value="CDISC009"/>
      <ItemData ItemOID="IT.LB.LBSEQ" Value="12"/>
      <ItemData ItemOID="IT.LB.LBTESTCD" Value="COLOR"/>
      <ItemData ItemOID="IT.LB.LBTEST" Value="Color"/>
      <ItemData ItemOID="IT.LB.LBCAT" Value="URINALYSIS"/>
      <ItemData ItemOID="IT.LB.LBORRES" Value="NORMAL"/>
      <ItemData ItemOID="IT.LB.LBSTRESC" Value="NORMAL"/>
      <ItemData ItemOID="IT.LB.LBNRIND" Value="NORMAL"/>
      <ItemData ItemOID="IT.LB.LBLOBXFL" Value="Y"/>
      <ItemData ItemOID="IT.LB.VISITNUM" Value="1"/>
      <ItemData ItemOID="IT.LB.VISIT" Value="SCREENING 1"/>
      <ItemData ItemOID="IT.LB.EPOCH" Value="SCREENING"/>
      <ItemData ItemOID="IT.LB.LBDTC" Value="2012-10-06T13:25"/>
      <ItemData ItemOID="IT.LB.LBDY" Value="-16"/>
    </ItemGroupData>
    <ItemGroupData ItemGroupOID="IG.LB" data:ItemGroupDataSeq="149">
      <ItemData ItemOID="IT.LB.STUDYID" Value="CDISCPILOT01"/>
      <ItemData ItemOID="IT.LB.DOMAIN" Value="LB"/>
      <ItemData ItemOID="IT.LB.USUBJID" Value="CDISC009"/>
      <ItemData ItemOID="IT.LB.LBSEQ" Value="20"/>
      <ItemData ItemOID="IT.LB.LBTESTCD" Value="KETONES"/>
      <ItemData ItemOID="IT.LB.LBTEST" Value="Ketones"/>
      <ItemData ItemOID="IT.LB.LBCAT" Value="URINALYSIS"/>
      <ItemData ItemOID="IT.LB.LBORRES" Value="0"/>
      <ItemData ItemOID="IT.LB.LBSTRESC" Value="0"/>
      <ItemData ItemOID="IT.LB.LBSTRESN" Value="0"/>
      <ItemData ItemOID="IT.LB.LBNRIND" Value="NORMAL"/>
      <ItemData ItemOID="IT.LB.LBLOBXFL" Value="Y"/>
      <ItemData ItemOID="IT.LB.VISITNUM" Value="1"/>
      <ItemData ItemOID="IT.LB.VISIT" Value="SCREENING 1"/>
      <ItemData ItemOID="IT.LB.EPOCH" Value="SCREENING"/>
      <ItemData ItemOID="IT.LB.LBDTC" Value="2012-10-06T13:25"/>
      <ItemData ItemOID="IT.LB.LBDY" Value="-16"/>
    </ItemGroupData>
    <ItemGroupData ItemGroupOID="IG.LB" data:ItemGroupDataSeq="150">
      <ItemData ItemOID="IT.LB.STUDYID" Value="CDISCPILOT01"/>
      <ItemData ItemOID="IT.LB.DOMAIN" Value="LB"/>
      <ItemData ItemOID="IT.LB.USUBJID" Value="CDISC009"/>
      <ItemData ItemOID="IT.LB.LBSEQ" Value="27"/>
      <ItemData ItemOID="IT.LB.LBTESTCD" Value="PH"/>
      <ItemData ItemOID="IT.LB.LBTEST" Value="pH"/>
      <ItemData ItemOID="IT.LB.LBCAT" Value="URINALYSIS"/>
      <ItemData ItemOID="IT.LB.LBORRES" Value="5"/>
      <ItemData ItemOID="IT.LB.LBORNRLO" Value="5"/>
      <ItemData ItemOID="IT.LB.LBORNRHI" Value="8"/>
      <ItemData ItemOID="IT.LB.LBSTRESC" Value="5"/>
      <ItemData ItemOID="IT.LB.LBSTRESN" Value="5"/>
      <ItemData ItemOID="IT.LB.LBSTNRLO" Value="5"/>
      <ItemData ItemOID="IT.LB.LBSTNRHI" Value="8"/>
      <ItemData ItemOID="IT.LB.LBNRIND" Value="NORMAL"/>
      <ItemData ItemOID="IT.LB.LBLOBXFL" Value="Y"/>
      <ItemData ItemOID="IT.LB.VISITNUM" Value="1"/>
      <ItemData ItemOID="IT.LB.VISIT" Value="SCREENING 1"/>
      <ItemData ItemOID="IT.LB.EPOCH" Value="SCREENING"/>
      <ItemData ItemOID="IT.LB.LBDTC" Value="2012-10-06T13:25"/>
      <ItemData ItemOID="IT.LB.LBDY" Value="-16"/>
    </ItemGroupData>
    <ItemGroupData ItemGroupOID="IG.LB" data:ItemGroupDataSeq="151">
      <ItemData ItemOID="IT.LB.STUDYID" Value="CDISCPILOT01"/>
      <ItemData ItemOID="IT.LB.DOMAIN" Value="LB"/>
      <ItemData ItemOID="IT.LB.USUBJID" Value="CDISC009"/>
      <ItemData ItemOID="IT.LB.LBSEQ" Value="32"/>
      <ItemData ItemOID="IT.LB.LBTESTCD" Value="SPGRAV"/>
      <ItemData ItemOID="IT.LB.LBTEST" Value="Specific Gravity"/>
      <ItemData ItemOID="IT.LB.LBCAT" Value="URINALYSIS"/>
      <ItemData ItemOID="IT.LB.LBORRES" Value="1.018"/>
      <ItemData ItemOID="IT.LB.LBORNRLO" Value="1.006"/>
      <ItemData ItemOID="IT.LB.LBORNRHI" Value="1.03"/>
      <ItemData ItemOID="IT.LB.LBSTRESC" Value="1.018"/>
      <ItemData ItemOID="IT.LB.LBSTRESN" Value="1.018"/>
      <ItemData ItemOID="IT.LB.LBSTNRLO" Value="1.006"/>
      <ItemData ItemOID="IT.LB.LBSTNRHI" Value="1.03"/>
      <ItemData ItemOID="IT.LB.LBNRIND" Value="NORMAL"/>
      <ItemData ItemOID="IT.LB.LBLOBXFL" Value="Y"/>
      <ItemData ItemOID="IT.LB.VISITNUM" Value="1"/>
      <ItemData ItemOID="IT.LB.VISIT" Value="SCREENING 1"/>
      <ItemData ItemOID="IT.LB.EPOCH" Value="SCREENING"/>
      <ItemData ItemOID="IT.LB.LBDTC" Value="2012-10-06T13:25"/>
      <ItemData ItemOID="IT.LB.LBDY" Value="-16"/>
    </ItemGroupData>
    <ItemGroupData ItemGroupOID="IG.LB" data:ItemGroupDataSeq="152">
      <ItemData ItemOID="IT.LB.STUDYID" Value="CDISCPILOT01"/>
      <ItemData ItemOID="IT.LB.DOMAIN" Value="LB"/>
      <ItemData ItemOID="IT.LB.USUBJID" Value="CDISC009"/>
      <ItemData ItemOID="IT.LB.LBSEQ" Value="33"/>
      <ItemData ItemOID="IT.LB.LBTESTCD" Value="TSH"/>
      <ItemData ItemOID="IT.LB.LBTEST" Value="Thyrotropin"/>
      <ItemData ItemOID="IT.LB.LBCAT" Value="OTHER"/>
      <ItemData ItemOID="IT.LB.LBORRES" Value=".97"/>
      <ItemData ItemOID="IT.LB.LBORRESU" Value="mIU/L"/>
      <ItemData ItemOID="IT.LB.LBORNRLO" Value=".32"/>
      <ItemData ItemOID="IT.LB.LBORNRHI" Value="5"/>
      <ItemData ItemOID="IT.LB.LBSTRESC" Value=".97"/>
      <ItemData ItemOID="IT.LB.LBSTRESN" Value="0.97"/>
      <ItemData ItemOID="IT.LB.LBSTRESU" Value="mU/L"/>
      <ItemData ItemOID="IT.LB.LBSTNRLO" Value="0.32"/>
      <ItemData ItemOID="IT.LB.LBSTNRHI" Value="5"/>
      <ItemData ItemOID="IT.LB.LBNRIND" Value="NORMAL"/>
      <ItemData ItemOID="IT.LB.LBLOBXFL" Value="Y"/>
      <ItemData ItemOID="IT.LB.VISITNUM" Value="1"/>
      <ItemData ItemOID="IT.LB.VISIT" Value="SCREENING 1"/>
      <ItemData ItemOID="IT.LB.EPOCH" Value="SCREENING"/>
      <ItemData ItemOID="IT.LB.LBDTC" Value="2012-10-06T13:25"/>
      <ItemData ItemOID="IT.LB.LBDY" Value="-16"/>
    </ItemGroupData>
    <ItemGroupData ItemGroupOID="IG.LB" data:ItemGroupDataSeq="153">
      <ItemData ItemOID="IT.LB.STUDYID" Value="CDISCPILOT01"/>
      <ItemData ItemOID="IT.LB.DOMAIN" Value="LB"/>
      <ItemData ItemOID="IT.LB.USUBJID" Value="CDISC009"/>
      <ItemData ItemOID="IT.LB.LBSEQ" Value="35"/>
      <ItemData ItemOID="IT.LB.LBTESTCD" Value="UROBIL"/>
      <ItemData ItemOID="IT.LB.LBTEST" Value="Urobilinogen"/>
      <ItemData ItemOID="IT.LB.LBCAT" Value="URINALYSIS"/>
      <ItemData ItemOID="IT.LB.LBORRES" Value="0"/>
      <ItemData ItemOID="IT.LB.LBSTRESC" Value="0"/>
      <ItemData ItemOID="IT.LB.LBSTRESN" Value="0"/>
      <ItemData ItemOID="IT.LB.LBNRIND" Value="NORMAL"/>
      <ItemData ItemOID="IT.LB.LBLOBXFL" Value="Y"/>
      <ItemData ItemOID="IT.LB.VISITNUM" Value="1"/>
      <ItemData ItemOID="IT.LB.VISIT" Value="SCREENING 1"/>
      <ItemData ItemOID="IT.LB.EPOCH" Value="SCREENING"/>
      <ItemData ItemOID="IT.LB.LBDTC" Value="2012-10-06T13:25"/>
      <ItemData ItemOID="IT.LB.LBDY" Value="-16"/>
    </ItemGroupData>
    <ItemGroupData ItemGroupOID="IG.LB" data:ItemGroupDataSeq="154">
      <ItemData ItemOID="IT.LB.STUDYID" Value="CDISCPILOT01"/>
      <ItemData ItemOID="IT.LB.DOMAIN" Value="LB"/>
      <ItemData ItemOID="IT.LB.USUBJID" Value="CDISC009"/>
      <ItemData ItemOID="IT.LB.LBSEQ" Value="36"/>
      <ItemData ItemOID="IT.LB.LBTESTCD" Value="VITB12"/>
      <ItemData ItemOID="IT.LB.LBTEST" Value="Vitamin B12"/>
      <ItemData ItemOID="IT.LB.LBCAT" Value="OTHER"/>
      <ItemData ItemOID="IT.LB.LBORRES" Value="402"/>
      <ItemData ItemOID="IT.LB.LBORRESU" Value="ng/L"/>
      <ItemData ItemOID="IT.LB.LBORNRLO" Value="200"/>
      <ItemData ItemOID="IT.LB.LBORNRHI" Value="900"/>
      <ItemData ItemOID="IT.LB.LBSTRESC" Value="296.5956"/>
      <ItemData ItemOID="IT.LB.LBSTRESN" Value="296.5956"/>
      <ItemData ItemOID="IT.LB.LBSTRESU" Value="pmol/L"/>
      <ItemData ItemOID="IT.LB.LBSTNRLO" Value="148"/>
      <ItemData ItemOID="IT.LB.LBSTNRHI" Value="664"/>
      <ItemData ItemOID="IT.LB.LBNRIND" Value="NORMAL"/>
      <ItemData ItemOID="IT.LB.LBLOBXFL" Value="Y"/>
      <ItemData ItemOID="IT.LB.VISITNUM" Value="1"/>
      <ItemData ItemOID="IT.LB.VISIT" Value="SCREENING 1"/>
      <ItemData ItemOID="IT.LB.EPOCH" Value="SCREENING"/>
      <ItemData ItemOID="IT.LB.LBDTC" Value="2012-10-06T13:25"/>
      <ItemData ItemOID="IT.LB.LBDY" Value="-16"/>
    </ItemGroupData>
    <ItemGroupData ItemGroupOID="IG.LB" data:ItemGroupDataSeq="155">
      <ItemData ItemOID="IT.LB.STUDYID" Value="CDISCPILOT01"/>
      <ItemData ItemOID="IT.LB.DOMAIN" Value="LB"/>
      <ItemData ItemOID="IT.LB.USUBJID" Value="CDISC009"/>
      <ItemData ItemOID="IT.LB.LBSEQ" Value="49"/>
      <ItemData ItemOID="IT.LB.LBTESTCD" Value="COLOR"/>
      <ItemData ItemOID="IT.LB.LBTEST" Value="Color"/>
      <ItemData ItemOID="IT.LB.LBCAT" Value="URINALYSIS"/>
      <ItemData ItemOID="IT.LB.LBORRES" Value="NORMAL"/>
      <ItemData ItemOID="IT.LB.LBSTRESC" Value="NORMAL"/>
      <ItemData ItemOID="IT.LB.LBNRIND" Value="NORMAL"/>
      <ItemData ItemOID="IT.LB.VISITNUM" Value="4"/>
      <ItemData ItemOID="IT.LB.VISIT" Value="WEEK 2"/>
      <ItemData ItemOID="IT.LB.EPOCH" Value="TREATMENT"/>
      <ItemData ItemOID="IT.LB.LBDTC" Value="2012-11-05T11:15"/>
      <ItemData ItemOID="IT.LB.LBDY" Value="15"/>
    </ItemGroupData>
    <ItemGroupData ItemGroupOID="IG.LB" data:ItemGroupDataSeq="156">
      <ItemData ItemOID="IT.LB.STUDYID" Value="CDISCPILOT01"/>
      <ItemData ItemOID="IT.LB.DOMAIN" Value="LB"/>
      <ItemData ItemOID="IT.LB.USUBJID" Value="CDISC009"/>
      <ItemData ItemOID="IT.LB.LBSEQ" Value="57"/>
      <ItemData ItemOID="IT.LB.LBTESTCD" Value="KETONES"/>
      <ItemData ItemOID="IT.LB.LBTEST" Value="Ketones"/>
      <ItemData ItemOID="IT.LB.LBCAT" Value="URINALYSIS"/>
      <ItemData ItemOID="IT.LB.LBORRES" Value="0"/>
      <ItemData ItemOID="IT.LB.LBSTRESC" Value="0"/>
      <ItemData ItemOID="IT.LB.LBSTRESN" Value="0"/>
      <ItemData ItemOID="IT.LB.LBNRIND" Value="NORMAL"/>
      <ItemData ItemOID="IT.LB.VISITNUM" Value="4"/>
      <ItemData ItemOID="IT.LB.VISIT" Value="WEEK 2"/>
      <ItemData ItemOID="IT.LB.EPOCH" Value="TREATMENT"/>
      <ItemData ItemOID="IT.LB.LBDTC" Value="2012-11-05T11:15"/>
      <ItemData ItemOID="IT.LB.LBDY" Value="15"/>
    </ItemGroupData>
    <ItemGroupData ItemGroupOID="IG.LB" data:ItemGroupDataSeq="157">
      <ItemData ItemOID="IT.LB.STUDYID" Value="CDISCPILOT01"/>
      <ItemData ItemOID="IT.LB.DOMAIN" Value="LB"/>
      <ItemData ItemOID="IT.LB.USUBJID" Value="CDISC009"/>
      <ItemData ItemOID="IT.LB.LBSEQ" Value="64"/>
      <ItemData ItemOID="IT.LB.LBTESTCD" Value="PH"/>
      <ItemData ItemOID="IT.LB.LBTEST" Value="pH"/>
      <ItemData ItemOID="IT.LB.LBCAT" Value="URINALYSIS"/>
      <ItemData ItemOID="IT.LB.LBORRES" Value="5"/>
      <ItemData ItemOID="IT.LB.LBORNRLO" Value="5"/>
      <ItemData ItemOID="IT.LB.LBORNRHI" Value="8"/>
      <ItemData ItemOID="IT.LB.LBSTRESC" Value="5"/>
      <ItemData ItemOID="IT.LB.LBSTRESN" Value="5"/>
      <ItemData ItemOID="IT.LB.LBSTNRLO" Value="5"/>
      <ItemData ItemOID="IT.LB.LBSTNRHI" Value="8"/>
      <ItemData ItemOID="IT.LB.LBNRIND" Value="NORMAL"/>
      <ItemData ItemOID="IT.LB.VISITNUM" Value="4"/>
      <ItemData ItemOID="IT.LB.VISIT" Value="WEEK 2"/>
      <ItemData ItemOID="IT.LB.EPOCH" Value="TREATMENT"/>
      <ItemData ItemOID="IT.LB.LBDTC" Value="2012-11-05T11:15"/>
      <ItemData ItemOID="IT.LB.LBDY" Value="15"/>
    </ItemGroupData>
    <ItemGroupData ItemGroupOID="IG.LB" data:ItemGroupDataSeq="158">
      <ItemData ItemOID="IT.LB.STUDYID" Value="CDISCPILOT01"/>
      <ItemData ItemOID="IT.LB.DOMAIN" Value="LB"/>
      <ItemData ItemOID="IT.LB.USUBJID" Value="CDISC009"/>
      <ItemData ItemOID="IT.LB.LBSEQ" Value="69"/>
      <ItemData ItemOID="IT.LB.LBTESTCD" Value="SPGRAV"/>
      <ItemData ItemOID="IT.LB.LBTEST" Value="Specific Gravity"/>
      <ItemData ItemOID="IT.LB.LBCAT" Value="URINALYSIS"/>
      <ItemData ItemOID="IT.LB.LBORRES" Value="1.019"/>
      <ItemData ItemOID="IT.LB.LBORNRLO" Value="1.006"/>
      <ItemData ItemOID="IT.LB.LBORNRHI" Value="1.03"/>
      <ItemData ItemOID="IT.LB.LBSTRESC" Value="1.019"/>
      <ItemData ItemOID="IT.LB.LBSTRESN" Value="1.019"/>
      <ItemData ItemOID="IT.LB.LBSTNRLO" Value="1.006"/>
      <ItemData ItemOID="IT.LB.LBSTNRHI" Value="1.03"/>
      <ItemData ItemOID="IT.LB.LBNRIND" Value="NORMAL"/>
      <ItemData ItemOID="IT.LB.VISITNUM" Value="4"/>
      <ItemData ItemOID="IT.LB.VISIT" Value="WEEK 2"/>
      <ItemData ItemOID="IT.LB.EPOCH" Value="TREATMENT"/>
      <ItemData ItemOID="IT.LB.LBDTC" Value="2012-11-05T11:15"/>
      <ItemData ItemOID="IT.LB.LBDY" Value="15"/>
    </ItemGroupData>
    <ItemGroupData ItemGroupOID="IG.LB" data:ItemGroupDataSeq="159">
      <ItemData ItemOID="IT.LB.STUDYID" Value="CDISCPILOT01"/>
      <ItemData ItemOID="IT.LB.DOMAIN" Value="LB"/>
      <ItemData ItemOID="IT.LB.USUBJID" Value="CDISC009"/>
      <ItemData ItemOID="IT.LB.LBSEQ" Value="71"/>
      <ItemData ItemOID="IT.LB.LBTESTCD" Value="UROBIL"/>
      <ItemData ItemOID="IT.LB.LBTEST" Value="Urobilinogen"/>
      <ItemData ItemOID="IT.LB.LBCAT" Value="URINALYSIS"/>
      <ItemData ItemOID="IT.LB.LBORRES" Value="0"/>
      <ItemData ItemOID="IT.LB.LBSTRESC" Value="0"/>
      <ItemData ItemOID="IT.LB.LBSTRESN" Value="0"/>
      <ItemData ItemOID="IT.LB.LBNRIND" Value="NORMAL"/>
      <ItemData ItemOID="IT.LB.VISITNUM" Value="4"/>
      <ItemData ItemOID="IT.LB.VISIT" Value="WEEK 2"/>
      <ItemData ItemOID="IT.LB.EPOCH" Value="TREATMENT"/>
      <ItemData ItemOID="IT.LB.LBDTC" Value="2012-11-05T11:15"/>
      <ItemData ItemOID="IT.LB.LBDY" Value="15"/>
    </ItemGroupData>
    <ItemGroupData ItemGroupOID="IG.LB" data:ItemGroupDataSeq="160">
      <ItemData ItemOID="IT.LB.STUDYID" Value="CDISCPILOT01"/>
      <ItemData ItemOID="IT.LB.DOMAIN" Value="LB"/>
      <ItemData ItemOID="IT.LB.USUBJID" Value="CDISC009"/>
      <ItemData ItemOID="IT.LB.LBSEQ" Value="174"/>
      <ItemData ItemOID="IT.LB.LBTESTCD" Value="COLOR"/>
      <ItemData ItemOID="IT.LB.LBTEST" Value="Color"/>
      <ItemData ItemOID="IT.LB.LBCAT" Value="URINALYSIS"/>
      <ItemData ItemOID="IT.LB.LBORRES" Value="NORMAL"/>
      <ItemData ItemOID="IT.LB.LBSTRESC" Value="NORMAL"/>
      <ItemData ItemOID="IT.LB.LBNRIND" Value="NORMAL"/>
      <ItemData ItemOID="IT.LB.VISITNUM" Value="9"/>
      <ItemData ItemOID="IT.LB.VISIT" Value="WEEK 12"/>
      <ItemData ItemOID="IT.LB.EPOCH" Value="TREATMENT"/>
      <ItemData ItemOID="IT.LB.LBDTC" Value="2013-01-19T15:15"/>
      <ItemData ItemOID="IT.LB.LBDY" Value="90"/>
    </ItemGroupData>
    <ItemGroupData ItemGroupOID="IG.LB" data:ItemGroupDataSeq="161">
      <ItemData ItemOID="IT.LB.STUDYID" Value="CDISCPILOT01"/>
      <ItemData ItemOID="IT.LB.DOMAIN" Value="LB"/>
      <ItemData ItemOID="IT.LB.USUBJID" Value="CDISC009"/>
      <ItemData ItemOID="IT.LB.LBSEQ" Value="182"/>
      <ItemData ItemOID="IT.LB.LBTESTCD" Value="KETONES"/>
      <ItemData ItemOID="IT.LB.LBTEST" Value="Ketones"/>
      <ItemData ItemOID="IT.LB.LBCAT" Value="URINALYSIS"/>
      <ItemData ItemOID="IT.LB.LBORRES" Value="0"/>
      <ItemData ItemOID="IT.LB.LBSTRESC" Value="0"/>
      <ItemData ItemOID="IT.LB.LBSTRESN" Value="0"/>
      <ItemData ItemOID="IT.LB.LBNRIND" Value="NORMAL"/>
      <ItemData ItemOID="IT.LB.VISITNUM" Value="9"/>
      <ItemData ItemOID="IT.LB.VISIT" Value="WEEK 12"/>
      <ItemData ItemOID="IT.LB.EPOCH" Value="TREATMENT"/>
      <ItemData ItemOID="IT.LB.LBDTC" Value="2013-01-19T15:15"/>
      <ItemData ItemOID="IT.LB.LBDY" Value="90"/>
    </ItemGroupData>
    <ItemGroupData ItemGroupOID="IG.LB" data:ItemGroupDataSeq="162">
      <ItemData ItemOID="IT.LB.STUDYID" Value="CDISCPILOT01"/>
      <ItemData ItemOID="IT.LB.DOMAIN" Value="LB"/>
      <ItemData ItemOID="IT.LB.USUBJID" Value="CDISC009"/>
      <ItemData ItemOID="IT.LB.LBSEQ" Value="189"/>
      <ItemData ItemOID="IT.LB.LBTESTCD" Value="PH"/>
      <ItemData ItemOID="IT.LB.LBTEST" Value="pH"/>
      <ItemData ItemOID="IT.LB.LBCAT" Value="URINALYSIS"/>
      <ItemData ItemOID="IT.LB.LBORRES" Value="5"/>
      <ItemData ItemOID="IT.LB.LBORNRLO" Value="5"/>
      <ItemData ItemOID="IT.LB.LBORNRHI" Value="8"/>
      <ItemData ItemOID="IT.LB.LBSTRESC" Value="5"/>
      <ItemData ItemOID="IT.LB.LBSTRESN" Value="5"/>
      <ItemData ItemOID="IT.LB.LBSTNRLO" Value="5"/>
      <ItemData ItemOID="IT.LB.LBSTNRHI" Value="8"/>
      <ItemData ItemOID="IT.LB.LBNRIND" Value="NORMAL"/>
      <ItemData ItemOID="IT.LB.VISITNUM" Value="9"/>
      <ItemData ItemOID="IT.LB.VISIT" Value="WEEK 12"/>
      <ItemData ItemOID="IT.LB.EPOCH" Value="TREATMENT"/>
      <ItemData ItemOID="IT.LB.LBDTC" Value="2013-01-19T15:15"/>
      <ItemData ItemOID="IT.LB.LBDY" Value="90"/>
    </ItemGroupData>
    <ItemGroupData ItemGroupOID="IG.LB" data:ItemGroupDataSeq="163">
      <ItemData ItemOID="IT.LB.STUDYID" Value="CDISCPILOT01"/>
      <ItemData ItemOID="IT.LB.DOMAIN" Value="LB"/>
      <ItemData ItemOID="IT.LB.USUBJID" Value="CDISC009"/>
      <ItemData ItemOID="IT.LB.LBSEQ" Value="194"/>
      <ItemData ItemOID="IT.LB.LBTESTCD" Value="SPGRAV"/>
      <ItemData ItemOID="IT.LB.LBTEST" Value="Specific Gravity"/>
      <ItemData ItemOID="IT.LB.LBCAT" Value="URINALYSIS"/>
      <ItemData ItemOID="IT.LB.LBORRES" Value="1.013"/>
      <ItemData ItemOID="IT.LB.LBORNRLO" Value="1.006"/>
      <ItemData ItemOID="IT.LB.LBORNRHI" Value="1.03"/>
      <ItemData ItemOID="IT.LB.LBSTRESC" Value="1.013"/>
      <ItemData ItemOID="IT.LB.LBSTRESN" Value="1.013"/>
      <ItemData ItemOID="IT.LB.LBSTNRLO" Value="1.006"/>
      <ItemData ItemOID="IT.LB.LBSTNRHI" Value="1.03"/>
      <ItemData ItemOID="IT.LB.LBNRIND" Value="NORMAL"/>
      <ItemData ItemOID="IT.LB.VISITNUM" Value="9"/>
      <ItemData ItemOID="IT.LB.VISIT" Value="WEEK 12"/>
      <ItemData ItemOID="IT.LB.EPOCH" Value="TREATMENT"/>
      <ItemData ItemOID="IT.LB.LBDTC" Value="2013-01-19T15:15"/>
      <ItemData ItemOID="IT.LB.LBDY" Value="90"/>
    </ItemGroupData>
    <ItemGroupData ItemGroupOID="IG.LB" data:ItemGroupDataSeq="164">
      <ItemData ItemOID="IT.LB.STUDYID" Value="CDISCPILOT01"/>
      <ItemData ItemOID="IT.LB.DOMAIN" Value="LB"/>
      <ItemData ItemOID="IT.LB.USUBJID" Value="CDISC009"/>
      <ItemData ItemOID="IT.LB.LBSEQ" Value="196"/>
      <ItemData ItemOID="IT.LB.LBTESTCD" Value="UROBIL"/>
      <ItemData ItemOID="IT.LB.LBTEST" Value="Urobilinogen"/>
      <ItemData ItemOID="IT.LB.LBCAT" Value="URINALYSIS"/>
      <ItemData ItemOID="IT.LB.LBORRES" Value="0"/>
      <ItemData ItemOID="IT.LB.LBSTRESC" Value="0"/>
      <ItemData ItemOID="IT.LB.LBSTRESN" Value="0"/>
      <ItemData ItemOID="IT.LB.LBNRIND" Value="NORMAL"/>
      <ItemData ItemOID="IT.LB.VISITNUM" Value="9"/>
      <ItemData ItemOID="IT.LB.VISIT" Value="WEEK 12"/>
      <ItemData ItemOID="IT.LB.EPOCH" Value="TREATMENT"/>
      <ItemData ItemOID="IT.LB.LBDTC" Value="2013-01-19T15:15"/>
      <ItemData ItemOID="IT.LB.LBDY" Value="90"/>
    </ItemGroupData>
    <ItemGroupData ItemGroupOID="IG.LB" data:ItemGroupDataSeq="165">
      <ItemData ItemOID="IT.LB.STUDYID" Value="CDISCPILOT01"/>
      <ItemData ItemOID="IT.LB.DOMAIN" Value="LB"/>
      <ItemData ItemOID="IT.LB.USUBJID" Value="CDISC009"/>
      <ItemData ItemOID="IT.LB.LBSEQ" Value="270"/>
      <ItemData ItemOID="IT.LB.LBTESTCD" Value="COLOR"/>
      <ItemData ItemOID="IT.LB.LBTEST" Value="Color"/>
      <ItemData ItemOID="IT.LB.LBCAT" Value="URINALYSIS"/>
      <ItemData ItemOID="IT.LB.LBORRES" Value="NORMAL"/>
      <ItemData ItemOID="IT.LB.LBSTRESC" Value="NORMAL"/>
      <ItemData ItemOID="IT.LB.LBNRIND" Value="NORMAL"/>
      <ItemData ItemOID="IT.LB.VISITNUM" Value="12"/>
      <ItemData ItemOID="IT.LB.VISIT" Value="WEEK 24"/>
      <ItemData ItemOID="IT.LB.EPOCH" Value="TREATMENT"/>
      <ItemData ItemOID="IT.LB.LBDTC" Value="2013-04-10T12:30"/>
      <ItemData ItemOID="IT.LB.LBDY" Value="171"/>
    </ItemGroupData>
    <ItemGroupData ItemGroupOID="IG.LB" data:ItemGroupDataSeq="166">
      <ItemData ItemOID="IT.LB.STUDYID" Value="CDISCPILOT01"/>
      <ItemData ItemOID="IT.LB.DOMAIN" Value="LB"/>
      <ItemData ItemOID="IT.LB.USUBJID" Value="CDISC009"/>
      <ItemData ItemOID="IT.LB.LBSEQ" Value="278"/>
      <ItemData ItemOID="IT.LB.LBTESTCD" Value="KETONES"/>
      <ItemData ItemOID="IT.LB.LBTEST" Value="Ketones"/>
      <ItemData ItemOID="IT.LB.LBCAT" Value="URINALYSIS"/>
      <ItemData ItemOID="IT.LB.LBORRES" Value="0"/>
      <ItemData ItemOID="IT.LB.LBSTRESC" Value="0"/>
      <ItemData ItemOID="IT.LB.LBSTRESN" Value="0"/>
      <ItemData ItemOID="IT.LB.LBNRIND" Value="NORMAL"/>
      <ItemData ItemOID="IT.LB.VISITNUM" Value="12"/>
      <ItemData ItemOID="IT.LB.VISIT" Value="WEEK 24"/>
      <ItemData ItemOID="IT.LB.EPOCH" Value="TREATMENT"/>
      <ItemData ItemOID="IT.LB.LBDTC" Value="2013-04-10T12:30"/>
      <ItemData ItemOID="IT.LB.LBDY" Value="171"/>
    </ItemGroupData>
    <ItemGroupData ItemGroupOID="IG.LB" data:ItemGroupDataSeq="167">
      <ItemData ItemOID="IT.LB.STUDYID" Value="CDISCPILOT01"/>
      <ItemData ItemOID="IT.LB.DOMAIN" Value="LB"/>
      <ItemData ItemOID="IT.LB.USUBJID" Value="CDISC009"/>
      <ItemData ItemOID="IT.LB.LBSEQ" Value="285"/>
      <ItemData ItemOID="IT.LB.LBTESTCD" Value="PH"/>
      <ItemData ItemOID="IT.LB.LBTEST" Value="pH"/>
      <ItemData ItemOID="IT.LB.LBCAT" Value="URINALYSIS"/>
      <ItemData ItemOID="IT.LB.LBORRES" Value="5"/>
      <ItemData ItemOID="IT.LB.LBORNRLO" Value="5"/>
      <ItemData ItemOID="IT.LB.LBORNRHI" Value="8"/>
      <ItemData ItemOID="IT.LB.LBSTRESC" Value="5"/>
      <ItemData ItemOID="IT.LB.LBSTRESN" Value="5"/>
      <ItemData ItemOID="IT.LB.LBSTNRLO" Value="5"/>
      <ItemData ItemOID="IT.LB.LBSTNRHI" Value="8"/>
      <ItemData ItemOID="IT.LB.LBNRIND" Value="NORMAL"/>
      <ItemData ItemOID="IT.LB.VISITNUM" Value="12"/>
      <ItemData ItemOID="IT.LB.VISIT" Value="WEEK 24"/>
      <ItemData ItemOID="IT.LB.EPOCH" Value="TREATMENT"/>
      <ItemData ItemOID="IT.LB.LBDTC" Value="2013-04-10T12:30"/>
      <ItemData ItemOID="IT.LB.LBDY" Value="171"/>
    </ItemGroupData>
    <ItemGroupData ItemGroupOID="IG.LB" data:ItemGroupDataSeq="168">
      <ItemData ItemOID="IT.LB.STUDYID" Value="CDISCPILOT01"/>
      <ItemData ItemOID="IT.LB.DOMAIN" Value="LB"/>
      <ItemData ItemOID="IT.LB.USUBJID" Value="CDISC009"/>
      <ItemData ItemOID="IT.LB.LBSEQ" Value="290"/>
      <ItemData ItemOID="IT.LB.LBTESTCD" Value="SPGRAV"/>
      <ItemData ItemOID="IT.LB.LBTEST" Value="Specific Gravity"/>
      <ItemData ItemOID="IT.LB.LBCAT" Value="URINALYSIS"/>
      <ItemData ItemOID="IT.LB.LBORRES" Value="1.02"/>
      <ItemData ItemOID="IT.LB.LBORNRLO" Value="1.006"/>
      <ItemData ItemOID="IT.LB.LBORNRHI" Value="1.03"/>
      <ItemData ItemOID="IT.LB.LBSTRESC" Value="1.02"/>
      <ItemData ItemOID="IT.LB.LBSTRESN" Value="1.02"/>
      <ItemData ItemOID="IT.LB.LBSTNRLO" Value="1.006"/>
      <ItemData ItemOID="IT.LB.LBSTNRHI" Value="1.03"/>
      <ItemData ItemOID="IT.LB.LBNRIND" Value="NORMAL"/>
      <ItemData ItemOID="IT.LB.VISITNUM" Value="12"/>
      <ItemData ItemOID="IT.LB.VISIT" Value="WEEK 24"/>
      <ItemData ItemOID="IT.LB.EPOCH" Value="TREATMENT"/>
      <ItemData ItemOID="IT.LB.LBDTC" Value="2013-04-10T12:30"/>
      <ItemData ItemOID="IT.LB.LBDY" Value="171"/>
    </ItemGroupData>
    <ItemGroupData ItemGroupOID="IG.LB" data:ItemGroupDataSeq="169">
      <ItemData ItemOID="IT.LB.STUDYID" Value="CDISCPILOT01"/>
      <ItemData ItemOID="IT.LB.DOMAIN" Value="LB"/>
      <ItemData ItemOID="IT.LB.USUBJID" Value="CDISC009"/>
      <ItemData ItemOID="IT.LB.LBSEQ" Value="292"/>
      <ItemData ItemOID="IT.LB.LBTESTCD" Value="UROBIL"/>
      <ItemData ItemOID="IT.LB.LBTEST" Value="Urobilinogen"/>
      <ItemData ItemOID="IT.LB.LBCAT" Value="URINALYSIS"/>
      <ItemData ItemOID="IT.LB.LBORRES" Value="0"/>
      <ItemData ItemOID="IT.LB.LBSTRESC" Value="0"/>
      <ItemData ItemOID="IT.LB.LBSTRESN" Value="0"/>
      <ItemData ItemOID="IT.LB.LBNRIND" Value="NORMAL"/>
      <ItemData ItemOID="IT.LB.VISITNUM" Value="12"/>
      <ItemData ItemOID="IT.LB.VISIT" Value="WEEK 24"/>
      <ItemData ItemOID="IT.LB.EPOCH" Value="TREATMENT"/>
      <ItemData ItemOID="IT.LB.LBDTC" Value="2013-04-10T12:30"/>
      <ItemData ItemOID="IT.LB.LBDY" Value="171"/>
    </ItemGroupData>
    <ItemGroupData ItemGroupOID="IG.LB" data:ItemGroupDataSeq="170">
      <ItemData ItemOID="IT.LB.STUDYID" Value="CDISCPILOT01"/>
      <ItemData ItemOID="IT.LB.DOMAIN" Value="LB"/>
      <ItemData ItemOID="IT.LB.USUBJID" Value="CDISC010"/>
      <ItemData ItemOID="IT.LB.LBSEQ" Value="12"/>
      <ItemData ItemOID="IT.LB.LBTESTCD" Value="COLOR"/>
      <ItemData ItemOID="IT.LB.LBTEST" Value="Color"/>
      <ItemData ItemOID="IT.LB.LBCAT" Value="URINALYSIS"/>
      <ItemData ItemOID="IT.LB.LBORRES" Value="NORMAL"/>
      <ItemData ItemOID="IT.LB.LBSTRESC" Value="NORMAL"/>
      <ItemData ItemOID="IT.LB.LBNRIND" Value="NORMAL"/>
      <ItemData ItemOID="IT.LB.LBLOBXFL" Value="Y"/>
      <ItemData ItemOID="IT.LB.VISITNUM" Value="1"/>
      <ItemData ItemOID="IT.LB.VISIT" Value="SCREENING 1"/>
      <ItemData ItemOID="IT.LB.EPOCH" Value="SCREENING"/>
      <ItemData ItemOID="IT.LB.LBDTC" Value="2013-09-08T12:40"/>
      <ItemData ItemOID="IT.LB.LBDY" Value="-13"/>
    </ItemGroupData>
    <ItemGroupData ItemGroupOID="IG.LB" data:ItemGroupDataSeq="171">
      <ItemData ItemOID="IT.LB.STUDYID" Value="CDISCPILOT01"/>
      <ItemData ItemOID="IT.LB.DOMAIN" Value="LB"/>
      <ItemData ItemOID="IT.LB.USUBJID" Value="CDISC010"/>
      <ItemData ItemOID="IT.LB.LBSEQ" Value="19"/>
      <ItemData ItemOID="IT.LB.LBTESTCD" Value="KETONES"/>
      <ItemData ItemOID="IT.LB.LBTEST" Value="Ketones"/>
      <ItemData ItemOID="IT.LB.LBCAT" Value="URINALYSIS"/>
      <ItemData ItemOID="IT.LB.LBORRES" Value="0"/>
      <ItemData ItemOID="IT.LB.LBSTRESC" Value="0"/>
      <ItemData ItemOID="IT.LB.LBSTRESN" Value="0"/>
      <ItemData ItemOID="IT.LB.LBNRIND" Value="NORMAL"/>
      <ItemData ItemOID="IT.LB.LBLOBXFL" Value="Y"/>
      <ItemData ItemOID="IT.LB.VISITNUM" Value="1"/>
      <ItemData ItemOID="IT.LB.VISIT" Value="SCREENING 1"/>
      <ItemData ItemOID="IT.LB.EPOCH" Value="SCREENING"/>
      <ItemData ItemOID="IT.LB.LBDTC" Value="2013-09-08T12:40"/>
      <ItemData ItemOID="IT.LB.LBDY" Value="-13"/>
    </ItemGroupData>
    <ItemGroupData ItemGroupOID="IG.LB" data:ItemGroupDataSeq="172">
      <ItemData ItemOID="IT.LB.STUDYID" Value="CDISCPILOT01"/>
      <ItemData ItemOID="IT.LB.DOMAIN" Value="LB"/>
      <ItemData ItemOID="IT.LB.USUBJID" Value="CDISC010"/>
      <ItemData ItemOID="IT.LB.LBSEQ" Value="26"/>
      <ItemData ItemOID="IT.LB.LBTESTCD" Value="PH"/>
      <ItemData ItemOID="IT.LB.LBTEST" Value="pH"/>
      <ItemData ItemOID="IT.LB.LBCAT" Value="URINALYSIS"/>
      <ItemData ItemOID="IT.LB.LBORRES" Value="6"/>
      <ItemData ItemOID="IT.LB.LBORNRLO" Value="5"/>
      <ItemData ItemOID="IT.LB.LBORNRHI" Value="8"/>
      <ItemData ItemOID="IT.LB.LBSTRESC" Value="6"/>
      <ItemData ItemOID="IT.LB.LBSTRESN" Value="6"/>
      <ItemData ItemOID="IT.LB.LBSTNRLO" Value="5"/>
      <ItemData ItemOID="IT.LB.LBSTNRHI" Value="8"/>
      <ItemData ItemOID="IT.LB.LBNRIND" Value="NORMAL"/>
      <ItemData ItemOID="IT.LB.LBLOBXFL" Value="Y"/>
      <ItemData ItemOID="IT.LB.VISITNUM" Value="1"/>
      <ItemData ItemOID="IT.LB.VISIT" Value="SCREENING 1"/>
      <ItemData ItemOID="IT.LB.EPOCH" Value="SCREENING"/>
      <ItemData ItemOID="IT.LB.LBDTC" Value="2013-09-08T12:40"/>
      <ItemData ItemOID="IT.LB.LBDY" Value="-13"/>
    </ItemGroupData>
    <ItemGroupData ItemGroupOID="IG.LB" data:ItemGroupDataSeq="173">
      <ItemData ItemOID="IT.LB.STUDYID" Value="CDISCPILOT01"/>
      <ItemData ItemOID="IT.LB.DOMAIN" Value="LB"/>
      <ItemData ItemOID="IT.LB.USUBJID" Value="CDISC010"/>
      <ItemData ItemOID="IT.LB.LBSEQ" Value="30"/>
      <ItemData ItemOID="IT.LB.LBTESTCD" Value="SPGRAV"/>
      <ItemData ItemOID="IT.LB.LBTEST" Value="Specific Gravity"/>
      <ItemData ItemOID="IT.LB.LBCAT" Value="URINALYSIS"/>
      <ItemData ItemOID="IT.LB.LBORRES" Value="1.015"/>
      <ItemData ItemOID="IT.LB.LBORNRLO" Value="1.006"/>
      <ItemData ItemOID="IT.LB.LBORNRHI" Value="1.03"/>
      <ItemData ItemOID="IT.LB.LBSTRESC" Value="1.015"/>
      <ItemData ItemOID="IT.LB.LBSTRESN" Value="1.015"/>
      <ItemData ItemOID="IT.LB.LBSTNRLO" Value="1.006"/>
      <ItemData ItemOID="IT.LB.LBSTNRHI" Value="1.03"/>
      <ItemData ItemOID="IT.LB.LBNRIND" Value="NORMAL"/>
      <ItemData ItemOID="IT.LB.LBLOBXFL" Value="Y"/>
      <ItemData ItemOID="IT.LB.VISITNUM" Value="1"/>
      <ItemData ItemOID="IT.LB.VISIT" Value="SCREENING 1"/>
      <ItemData ItemOID="IT.LB.EPOCH" Value="SCREENING"/>
      <ItemData ItemOID="IT.LB.LBDTC" Value="2013-09-08T12:40"/>
      <ItemData ItemOID="IT.LB.LBDY" Value="-13"/>
    </ItemGroupData>
    <ItemGroupData ItemGroupOID="IG.LB" data:ItemGroupDataSeq="174">
      <ItemData ItemOID="IT.LB.STUDYID" Value="CDISCPILOT01"/>
      <ItemData ItemOID="IT.LB.DOMAIN" Value="LB"/>
      <ItemData ItemOID="IT.LB.USUBJID" Value="CDISC010"/>
      <ItemData ItemOID="IT.LB.LBSEQ" Value="31"/>
      <ItemData ItemOID="IT.LB.LBTESTCD" Value="TSH"/>
      <ItemData ItemOID="IT.LB.LBTEST" Value="Thyrotropin"/>
      <ItemData ItemOID="IT.LB.LBCAT" Value="OTHER"/>
      <ItemData ItemOID="IT.LB.LBORRES" Value=".99"/>
      <ItemData ItemOID="IT.LB.LBORRESU" Value="mIU/L"/>
      <ItemData ItemOID="IT.LB.LBORNRLO" Value=".32"/>
      <ItemData ItemOID="IT.LB.LBORNRHI" Value="5"/>
      <ItemData ItemOID="IT.LB.LBSTRESC" Value=".99"/>
      <ItemData ItemOID="IT.LB.LBSTRESN" Value="0.99"/>
      <ItemData ItemOID="IT.LB.LBSTRESU" Value="mU/L"/>
      <ItemData ItemOID="IT.LB.LBSTNRLO" Value="0.32"/>
      <ItemData ItemOID="IT.LB.LBSTNRHI" Value="5"/>
      <ItemData ItemOID="IT.LB.LBNRIND" Value="NORMAL"/>
      <ItemData ItemOID="IT.LB.LBLOBXFL" Value="Y"/>
      <ItemData ItemOID="IT.LB.VISITNUM" Value="1"/>
      <ItemData ItemOID="IT.LB.VISIT" Value="SCREENING 1"/>
      <ItemData ItemOID="IT.LB.EPOCH" Value="SCREENING"/>
      <ItemData ItemOID="IT.LB.LBDTC" Value="2013-09-08T12:40"/>
      <ItemData ItemOID="IT.LB.LBDY" Value="-13"/>
    </ItemGroupData>
    <ItemGroupData ItemGroupOID="IG.LB" data:ItemGroupDataSeq="175">
      <ItemData ItemOID="IT.LB.STUDYID" Value="CDISCPILOT01"/>
      <ItemData ItemOID="IT.LB.DOMAIN" Value="LB"/>
      <ItemData ItemOID="IT.LB.USUBJID" Value="CDISC010"/>
      <ItemData ItemOID="IT.LB.LBSEQ" Value="33"/>
      <ItemData ItemOID="IT.LB.LBTESTCD" Value="UROBIL"/>
      <ItemData ItemOID="IT.LB.LBTEST" Value="Urobilinogen"/>
      <ItemData ItemOID="IT.LB.LBCAT" Value="URINALYSIS"/>
      <ItemData ItemOID="IT.LB.LBORRES" Value="0"/>
      <ItemData ItemOID="IT.LB.LBSTRESC" Value="0"/>
      <ItemData ItemOID="IT.LB.LBSTRESN" Value="0"/>
