<?xml version="1.0" encoding="UTF-8"?>
<!-- Dataset-XML: Untyped Data Example  --> 
<!-- Built from the SAS XPT files published with the SDTM-MSG (SDTM Metadata Submission Guidelines) V2.0 --> 
<ODM
  xmlns="http://www.cdisc.org/ns/odm/v1.3"
  xmlns:xlink="http://www.w3.org/1999/xlink" 
  xmlns:data="http://www.cdisc.org/ns/Dataset-XML/v1.0"
  FileType="Snapshot"
  ODMVersion="1.3.2"
  data:DatasetXMLVersion="1.0.0"
  FileOID="www.cdisc.org/StudyMSGv2/1/Define-XML_2.1.0(IG.AE).Data(AE)"
  PriorFileOID="www.cdisc.org/StudyMSGv2/1/Define-XML_2.1.0"
  CreationDateTime="2020-08-21T09:21:13"
  Originator="CDISC MSG Team"
  SourceSystem="M.Hungria-System"
  SourceSystemVersion="2.1-A1"
  >
  <ClinicalData
    StudyOID="cdisc.com/CDISCPILOT01"
    MetaDataVersionOID="MDV.MSGv2.0.SDTMIG.3.3.SDTM.1.7">
    <!-- Dataset (AE) -->
    <ItemGroupData ItemGroupOID="IG.AE" data:ItemGroupDataSeq="1">
      <ItemData ItemOID="IT.AE.STUDYID" Value="CDISCPILOT01"/>
      <ItemData ItemOID="IT.AE.DOMAIN" Value="AE"/>
      <ItemData ItemOID="IT.AE.USUBJID" Value="CDISC001"/>
      <ItemData ItemOID="IT.AE.AESEQ" Value="1"/>
      <ItemData ItemOID="IT.AE.AELNKID" Value="1"/>
      <ItemData ItemOID="IT.AE.AETERM" Value="INJECTION SITE REACTION"/>
      <ItemData ItemOID="IT.AE.AESEV" Value="MODERATE"/>
      <ItemData ItemOID="IT.AE.AESER" Value="N"/>
      <ItemData ItemOID="IT.AE.AEACN" Value="DRUG WITHDRAWN"/>
      <ItemData ItemOID="IT.AE.AEREL" Value="RELATED"/>
      <ItemData ItemOID="IT.AE.AEOUT" Value="NOT RECOVERED/NOT RESOLVED"/>
      <ItemData ItemOID="IT.AE.AESCAN" Value="N"/>
      <ItemData ItemOID="IT.AE.AESCONG" Value="N"/>
      <ItemData ItemOID="IT.AE.AESDISAB" Value="N"/>
      <ItemData ItemOID="IT.AE.AESDTH" Value="N"/>
      <ItemData ItemOID="IT.AE.AESHOSP" Value="N"/>
      <ItemData ItemOID="IT.AE.AESLIFE" Value="N"/>
      <ItemData ItemOID="IT.AE.AESOD" Value="N"/>
      <ItemData ItemOID="IT.AE.EPOCH" Value="TREATMENT"/>
      <ItemData ItemOID="IT.AE.AESTDTC" Value="2012-12-02"/>
      <ItemData ItemOID="IT.AE.AESTDY" Value="3"/>
      <ItemData ItemOID="IT.AE.AEENRTPT" Value="ONGOING"/>
      <ItemData ItemOID="IT.AE.AEENTPT" Value="2013-05-20"/>
    </ItemGroupData>
    <ItemGroupData ItemGroupOID="IG.AE" data:ItemGroupDataSeq="2">
      <ItemData ItemOID="IT.AE.STUDYID" Value="CDISCPILOT01"/>
      <ItemData ItemOID="IT.AE.DOMAIN" Value="AE"/>
      <ItemData ItemOID="IT.AE.USUBJID" Value="CDISC001"/>
      <ItemData ItemOID="IT.AE.AESEQ" Value="2"/>
      <ItemData ItemOID="IT.AE.AELNKID" Value="2"/>
      <ItemData ItemOID="IT.AE.AETERM" Value="FATIGUE"/>
      <ItemData ItemOID="IT.AE.AESEV" Value="MODERATE"/>
      <ItemData ItemOID="IT.AE.AESER" Value="N"/>
      <ItemData ItemOID="IT.AE.AEACN" Value="DOSE NOT CHANGED"/>
      <ItemData ItemOID="IT.AE.AEREL" Value="UNLIKELY RELATED"/>
      <ItemData ItemOID="IT.AE.AEOUT" Value="NOT RECOVERED/NOT RESOLVED"/>
      <ItemData ItemOID="IT.AE.AESCAN" Value="N"/>
      <ItemData ItemOID="IT.AE.AESCONG" Value="N"/>
      <ItemData ItemOID="IT.AE.AESDISAB" Value="N"/>
      <ItemData ItemOID="IT.AE.AESDTH" Value="N"/>
      <ItemData ItemOID="IT.AE.AESHOSP" Value="N"/>
      <ItemData ItemOID="IT.AE.AESLIFE" Value="N"/>
      <ItemData ItemOID="IT.AE.AESOD" Value="N"/>
      <ItemData ItemOID="IT.AE.EPOCH" Value="TREATMENT"/>
      <ItemData ItemOID="IT.AE.AESTDTC" Value="2013-01-14"/>
      <ItemData ItemOID="IT.AE.AESTDY" Value="46"/>
      <ItemData ItemOID="IT.AE.AEENRTPT" Value="ONGOING"/>
      <ItemData ItemOID="IT.AE.AEENTPT" Value="2013-05-20"/>
    </ItemGroupData>
    <ItemGroupData ItemGroupOID="IG.AE" data:ItemGroupDataSeq="3">
      <ItemData ItemOID="IT.AE.STUDYID" Value="CDISCPILOT01"/>
      <ItemData ItemOID="IT.AE.DOMAIN" Value="AE"/>
      <ItemData ItemOID="IT.AE.USUBJID" Value="CDISC002"/>
      <ItemData ItemOID="IT.AE.AESEQ" Value="1"/>
      <ItemData ItemOID="IT.AE.AELNKID" Value="1"/>
      <ItemData ItemOID="IT.AE.AETERM" Value="INJECTION SITE REACTION"/>
      <ItemData ItemOID="IT.AE.AESEV" Value="MILD"/>
      <ItemData ItemOID="IT.AE.AESER" Value="N"/>
      <ItemData ItemOID="IT.AE.AEACN" Value="DOSE NOT CHANGED"/>
      <ItemData ItemOID="IT.AE.AEREL" Value="POSSIBLY RELATED"/>
      <ItemData ItemOID="IT.AE.AEOUT" Value="NOT RECOVERED/NOT RESOLVED"/>
      <ItemData ItemOID="IT.AE.AESCAN" Value="N"/>
      <ItemData ItemOID="IT.AE.AESCONG" Value="N"/>
      <ItemData ItemOID="IT.AE.AESDISAB" Value="N"/>
      <ItemData ItemOID="IT.AE.AESDTH" Value="N"/>
      <ItemData ItemOID="IT.AE.AESHOSP" Value="N"/>
      <ItemData ItemOID="IT.AE.AESLIFE" Value="N"/>
      <ItemData ItemOID="IT.AE.AESOD" Value="N"/>
      <ItemData ItemOID="IT.AE.EPOCH" Value="TREATMENT"/>
      <ItemData ItemOID="IT.AE.AESTDTC" Value="2012-11-16"/>
      <ItemData ItemOID="IT.AE.AESTDY" Value="2"/>
      <ItemData ItemOID="IT.AE.AEENRTPT" Value="ONGOING"/>
      <ItemData ItemOID="IT.AE.AEENTPT" Value="2013-01-14"/>
    </ItemGroupData>
    <ItemGroupData ItemGroupOID="IG.AE" data:ItemGroupDataSeq="4">
      <ItemData ItemOID="IT.AE.STUDYID" Value="CDISCPILOT01"/>
      <ItemData ItemOID="IT.AE.DOMAIN" Value="AE"/>
      <ItemData ItemOID="IT.AE.USUBJID" Value="CDISC002"/>
      <ItemData ItemOID="IT.AE.AESEQ" Value="2"/>
      <ItemData ItemOID="IT.AE.AELNKID" Value="2"/>
      <ItemData ItemOID="IT.AE.AETERM" Value="SHOULDER PAIN"/>
      <ItemData ItemOID="IT.AE.AESEV" Value="MILD"/>
      <ItemData ItemOID="IT.AE.AESER" Value="N"/>
      <ItemData ItemOID="IT.AE.AEACN" Value="DOSE NOT CHANGED"/>
      <ItemData ItemOID="IT.AE.AEREL" Value="NOT RELATED"/>
      <ItemData ItemOID="IT.AE.AEOUT" Value="NOT RECOVERED/NOT RESOLVED"/>
      <ItemData ItemOID="IT.AE.AESCAN" Value="N"/>
      <ItemData ItemOID="IT.AE.AESCONG" Value="N"/>
      <ItemData ItemOID="IT.AE.AESDISAB" Value="N"/>
      <ItemData ItemOID="IT.AE.AESDTH" Value="N"/>
      <ItemData ItemOID="IT.AE.AESHOSP" Value="N"/>
      <ItemData ItemOID="IT.AE.AESLIFE" Value="N"/>
      <ItemData ItemOID="IT.AE.AESOD" Value="N"/>
      <ItemData ItemOID="IT.AE.EPOCH" Value="TREATMENT"/>
      <ItemData ItemOID="IT.AE.AESTDTC" Value="2012-11-21"/>
      <ItemData ItemOID="IT.AE.AESTDY" Value="7"/>
      <ItemData ItemOID="IT.AE.AEENRTPT" Value="ONGOING"/>
      <ItemData ItemOID="IT.AE.AEENTPT" Value="2013-01-14"/>
    </ItemGroupData>
    <ItemGroupData ItemGroupOID="IG.AE" data:ItemGroupDataSeq="5">
      <ItemData ItemOID="IT.AE.STUDYID" Value="CDISCPILOT01"/>
      <ItemData ItemOID="IT.AE.DOMAIN" Value="AE"/>
      <ItemData ItemOID="IT.AE.USUBJID" Value="CDISC002"/>
      <ItemData ItemOID="IT.AE.AESEQ" Value="3"/>
      <ItemData ItemOID="IT.AE.AELNKID" Value="3"/>
      <ItemData ItemOID="IT.AE.AETERM" Value="JOINT DISLOCATION"/>
      <ItemData ItemOID="IT.AE.AESEV" Value="MODERATE"/>
      <ItemData ItemOID="IT.AE.AESER" Value="N"/>
      <ItemData ItemOID="IT.AE.AEACN" Value="DOSE NOT CHANGED"/>
      <ItemData ItemOID="IT.AE.AEREL" Value="NOT RELATED"/>
      <ItemData ItemOID="IT.AE.AEOUT" Value="RECOVERED/RESOLVED"/>
      <ItemData ItemOID="IT.AE.AESCAN" Value="N"/>
      <ItemData ItemOID="IT.AE.AESCONG" Value="N"/>
      <ItemData ItemOID="IT.AE.AESDISAB" Value="N"/>
      <ItemData ItemOID="IT.AE.AESDTH" Value="N"/>
      <ItemData ItemOID="IT.AE.AESHOSP" Value="N"/>
      <ItemData ItemOID="IT.AE.AESLIFE" Value="N"/>
      <ItemData ItemOID="IT.AE.AESOD" Value="N"/>
      <ItemData ItemOID="IT.AE.EPOCH" Value="TREATMENT"/>
      <ItemData ItemOID="IT.AE.AESTDTC" Value="2012-11-21"/>
      <ItemData ItemOID="IT.AE.AEENDTC" Value="2012-11-21"/>
      <ItemData ItemOID="IT.AE.AESTDY" Value="7"/>
      <ItemData ItemOID="IT.AE.AEENDY" Value="7"/>
    </ItemGroupData>
    <ItemGroupData ItemGroupOID="IG.AE" data:ItemGroupDataSeq="6">
      <ItemData ItemOID="IT.AE.STUDYID" Value="CDISCPILOT01"/>
      <ItemData ItemOID="IT.AE.DOMAIN" Value="AE"/>
      <ItemData ItemOID="IT.AE.USUBJID" Value="CDISC002"/>
      <ItemData ItemOID="IT.AE.AESEQ" Value="4"/>
      <ItemData ItemOID="IT.AE.AELNKID" Value="4"/>
      <ItemData ItemOID="IT.AE.AETERM" Value="INCONTINENCE"/>
      <ItemData ItemOID="IT.AE.AESEV" Value="MILD"/>
      <ItemData ItemOID="IT.AE.AESER" Value="N"/>
      <ItemData ItemOID="IT.AE.AEACN" Value="DOSE NOT CHANGED"/>
      <ItemData ItemOID="IT.AE.AEREL" Value="NOT RELATED"/>
      <ItemData ItemOID="IT.AE.AEOUT" Value="NOT RECOVERED/NOT RESOLVED"/>
      <ItemData ItemOID="IT.AE.AESCAN" Value="N"/>
      <ItemData ItemOID="IT.AE.AESCONG" Value="N"/>
      <ItemData ItemOID="IT.AE.AESDISAB" Value="N"/>
      <ItemData ItemOID="IT.AE.AESDTH" Value="N"/>
      <ItemData ItemOID="IT.AE.AESHOSP" Value="N"/>
      <ItemData ItemOID="IT.AE.AESLIFE" Value="N"/>
      <ItemData ItemOID="IT.AE.AESOD" Value="N"/>
      <ItemData ItemOID="IT.AE.EPOCH" Value="TREATMENT"/>
      <ItemData ItemOID="IT.AE.AESTDTC" Value="2012-11-22"/>
      <ItemData ItemOID="IT.AE.AESTDY" Value="8"/>
      <ItemData ItemOID="IT.AE.AEENRTPT" Value="ONGOING"/>
      <ItemData ItemOID="IT.AE.AEENTPT" Value="2013-01-14"/>
    </ItemGroupData>
    <ItemGroupData ItemGroupOID="IG.AE" data:ItemGroupDataSeq="7">
      <ItemData ItemOID="IT.AE.STUDYID" Value="CDISCPILOT01"/>
      <ItemData ItemOID="IT.AE.DOMAIN" Value="AE"/>
      <ItemData ItemOID="IT.AE.USUBJID" Value="CDISC002"/>
      <ItemData ItemOID="IT.AE.AESEQ" Value="5"/>
      <ItemData ItemOID="IT.AE.AELNKID" Value="5"/>
      <ItemData ItemOID="IT.AE.AETERM" Value="INJECTION SITE REACTION"/>
      <ItemData ItemOID="IT.AE.AESEV" Value="MILD"/>
      <ItemData ItemOID="IT.AE.AESER" Value="N"/>
      <ItemData ItemOID="IT.AE.AEACN" Value="DOSE NOT CHANGED"/>
      <ItemData ItemOID="IT.AE.AEREL" Value="POSSIBLY RELATED"/>
      <ItemData ItemOID="IT.AE.AEOUT" Value="NOT RECOVERED/NOT RESOLVED"/>
      <ItemData ItemOID="IT.AE.AESCAN" Value="N"/>
      <ItemData ItemOID="IT.AE.AESCONG" Value="N"/>
      <ItemData ItemOID="IT.AE.AESDISAB" Value="N"/>
      <ItemData ItemOID="IT.AE.AESDTH" Value="N"/>
      <ItemData ItemOID="IT.AE.AESHOSP" Value="N"/>
      <ItemData ItemOID="IT.AE.AESLIFE" Value="N"/>
      <ItemData ItemOID="IT.AE.AESOD" Value="N"/>
      <ItemData ItemOID="IT.AE.EPOCH" Value="TREATMENT"/>
      <ItemData ItemOID="IT.AE.AESTDTC" Value="2012-11-29"/>
      <ItemData ItemOID="IT.AE.AESTDY" Value="15"/>
      <ItemData ItemOID="IT.AE.AEENRTPT" Value="ONGOING"/>
      <ItemData ItemOID="IT.AE.AEENTPT" Value="2013-01-14"/>
    </ItemGroupData>
    <ItemGroupData ItemGroupOID="IG.AE" data:ItemGroupDataSeq="8">
      <ItemData ItemOID="IT.AE.STUDYID" Value="CDISCPILOT01"/>
      <ItemData ItemOID="IT.AE.DOMAIN" Value="AE"/>
      <ItemData ItemOID="IT.AE.USUBJID" Value="CDISC002"/>
      <ItemData ItemOID="IT.AE.AESEQ" Value="6"/>
      <ItemData ItemOID="IT.AE.AELNKID" Value="6"/>
      <ItemData ItemOID="IT.AE.AETERM" Value="SKIN LACERATION"/>
      <ItemData ItemOID="IT.AE.AESEV" Value="MILD"/>
      <ItemData ItemOID="IT.AE.AESER" Value="N"/>
      <ItemData ItemOID="IT.AE.AEACN" Value="DOSE NOT CHANGED"/>
      <ItemData ItemOID="IT.AE.AEREL" Value="NOT RELATED"/>
      <ItemData ItemOID="IT.AE.AEOUT" Value="NOT RECOVERED/NOT RESOLVED"/>
      <ItemData ItemOID="IT.AE.AESCAN" Value="N"/>
      <ItemData ItemOID="IT.AE.AESCONG" Value="N"/>
      <ItemData ItemOID="IT.AE.AESDISAB" Value="N"/>
      <ItemData ItemOID="IT.AE.AESDTH" Value="N"/>
      <ItemData ItemOID="IT.AE.AESHOSP" Value="N"/>
      <ItemData ItemOID="IT.AE.AESLIFE" Value="N"/>
      <ItemData ItemOID="IT.AE.AESOD" Value="N"/>
      <ItemData ItemOID="IT.AE.EPOCH" Value="TREATMENT"/>
      <ItemData ItemOID="IT.AE.AESTDTC" Value="2012-12-09"/>
      <ItemData ItemOID="IT.AE.AESTDY" Value="25"/>
      <ItemData ItemOID="IT.AE.AEENRTPT" Value="ONGOING"/>
      <ItemData ItemOID="IT.AE.AEENTPT" Value="2013-01-14"/>
    </ItemGroupData>
    <ItemGroupData ItemGroupOID="IG.AE" data:ItemGroupDataSeq="9">
      <ItemData ItemOID="IT.AE.STUDYID" Value="CDISCPILOT01"/>
      <ItemData ItemOID="IT.AE.DOMAIN" Value="AE"/>
      <ItemData ItemOID="IT.AE.USUBJID" Value="CDISC002"/>
      <ItemData ItemOID="IT.AE.AESEQ" Value="7"/>
      <ItemData ItemOID="IT.AE.AELNKID" Value="7"/>
      <ItemData ItemOID="IT.AE.AETERM" Value="CONFUSIONAL STATE"/>
      <ItemData ItemOID="IT.AE.AESEV" Value="MODERATE"/>
      <ItemData ItemOID="IT.AE.AESER" Value="N"/>
      <ItemData ItemOID="IT.AE.AEACN" Value="DOSE NOT CHANGED"/>
      <ItemData ItemOID="IT.AE.AEREL" Value="NOT RELATED"/>
      <ItemData ItemOID="IT.AE.AEOUT" Value="NOT RECOVERED/NOT RESOLVED"/>
      <ItemData ItemOID="IT.AE.AESCAN" Value="N"/>
      <ItemData ItemOID="IT.AE.AESCONG" Value="N"/>
      <ItemData ItemOID="IT.AE.AESDISAB" Value="N"/>
      <ItemData ItemOID="IT.AE.AESDTH" Value="N"/>
      <ItemData ItemOID="IT.AE.AESHOSP" Value="N"/>
      <ItemData ItemOID="IT.AE.AESLIFE" Value="N"/>
      <ItemData ItemOID="IT.AE.AESOD" Value="N"/>
      <ItemData ItemOID="IT.AE.EPOCH" Value="TREATMENT"/>
      <ItemData ItemOID="IT.AE.AESTDTC" Value="2013-01-11"/>
      <ItemData ItemOID="IT.AE.AESTDY" Value="58"/>
      <ItemData ItemOID="IT.AE.AEENRTPT" Value="ONGOING"/>
      <ItemData ItemOID="IT.AE.AEENTPT" Value="2013-01-14"/>
    </ItemGroupData>
    <ItemGroupData ItemGroupOID="IG.AE" data:ItemGroupDataSeq="10">
      <ItemData ItemOID="IT.AE.STUDYID" Value="CDISCPILOT01"/>
      <ItemData ItemOID="IT.AE.DOMAIN" Value="AE"/>
      <ItemData ItemOID="IT.AE.USUBJID" Value="CDISC002"/>
      <ItemData ItemOID="IT.AE.AESEQ" Value="8"/>
      <ItemData ItemOID="IT.AE.AELNKID" Value="8"/>
      <ItemData ItemOID="IT.AE.AETERM" Value="DYSPNOEA"/>
      <ItemData ItemOID="IT.AE.AESEV" Value="MODERATE"/>
      <ItemData ItemOID="IT.AE.AESER" Value="N"/>
      <ItemData ItemOID="IT.AE.AEACN" Value="DOSE NOT CHANGED"/>
      <ItemData ItemOID="IT.AE.AEREL" Value="NOT RELATED"/>
      <ItemData ItemOID="IT.AE.AEOUT" Value="NOT RECOVERED/NOT RESOLVED"/>
      <ItemData ItemOID="IT.AE.AESCAN" Value="N"/>
      <ItemData ItemOID="IT.AE.AESCONG" Value="N"/>
      <ItemData ItemOID="IT.AE.AESDISAB" Value="N"/>
      <ItemData ItemOID="IT.AE.AESDTH" Value="N"/>
      <ItemData ItemOID="IT.AE.AESHOSP" Value="N"/>
      <ItemData ItemOID="IT.AE.AESLIFE" Value="N"/>
      <ItemData ItemOID="IT.AE.AESOD" Value="N"/>
      <ItemData ItemOID="IT.AE.EPOCH" Value="TREATMENT"/>
      <ItemData ItemOID="IT.AE.AESTDTC" Value="2013-01-11"/>
      <ItemData ItemOID="IT.AE.AESTDY" Value="58"/>
      <ItemData ItemOID="IT.AE.AEENRTPT" Value="ONGOING"/>
      <ItemData ItemOID="IT.AE.AEENTPT" Value="2013-01-14"/>
    </ItemGroupData>
    <ItemGroupData ItemGroupOID="IG.AE" data:ItemGroupDataSeq="11">
      <ItemData ItemOID="IT.AE.STUDYID" Value="CDISCPILOT01"/>
      <ItemData ItemOID="IT.AE.DOMAIN" Value="AE"/>
      <ItemData ItemOID="IT.AE.USUBJID" Value="CDISC002"/>
      <ItemData ItemOID="IT.AE.AESEQ" Value="9"/>
      <ItemData ItemOID="IT.AE.AELNKID" Value="9"/>
      <ItemData ItemOID="IT.AE.AETERM" Value="SUDDEN DEATH"/>
      <ItemData ItemOID="IT.AE.AESEV" Value="SEVERE"/>
      <ItemData ItemOID="IT.AE.AESER" Value="Y"/>
      <ItemData ItemOID="IT.AE.AEACN" Value="DRUG WITHDRAWN"/>
      <ItemData ItemOID="IT.AE.AEREL" Value="NOT RELATED"/>
      <ItemData ItemOID="IT.AE.AEOUT" Value="FATAL"/>
      <ItemData ItemOID="IT.AE.AESCAN" Value="N"/>
      <ItemData ItemOID="IT.AE.AESCONG" Value="N"/>
      <ItemData ItemOID="IT.AE.AESDISAB" Value="N"/>
      <ItemData ItemOID="IT.AE.AESDTH" Value="Y"/>
      <ItemData ItemOID="IT.AE.AESHOSP" Value="N"/>
      <ItemData ItemOID="IT.AE.AESLIFE" Value="Y"/>
      <ItemData ItemOID="IT.AE.AESOD" Value="N"/>
      <ItemData ItemOID="IT.AE.EPOCH" Value="TREATMENT"/>
      <ItemData ItemOID="IT.AE.AESTDTC" Value="2013-01-14"/>
      <ItemData ItemOID="IT.AE.AEENDTC" Value="2013-01-14"/>
      <ItemData ItemOID="IT.AE.AESTDY" Value="61"/>
      <ItemData ItemOID="IT.AE.AEENDY" Value="61"/>
    </ItemGroupData>
    <ItemGroupData ItemGroupOID="IG.AE" data:ItemGroupDataSeq="12">
      <ItemData ItemOID="IT.AE.STUDYID" Value="CDISCPILOT01"/>
      <ItemData ItemOID="IT.AE.DOMAIN" Value="AE"/>
      <ItemData ItemOID="IT.AE.USUBJID" Value="CDISC003"/>
      <ItemData ItemOID="IT.AE.AESEQ" Value="1"/>
      <ItemData ItemOID="IT.AE.AELNKID" Value="1"/>
      <ItemData ItemOID="IT.AE.AETERM" Value="HYPERHIDROSIS"/>
      <ItemData ItemOID="IT.AE.AESEV" Value="MILD"/>
      <ItemData ItemOID="IT.AE.AESER" Value="N"/>
      <ItemData ItemOID="IT.AE.AEACN" Value="DOSE NOT CHANGED"/>
      <ItemData ItemOID="IT.AE.AEREL" Value="POSSIBLY RELATED"/>
      <ItemData ItemOID="IT.AE.AEOUT" Value="NOT RECOVERED/NOT RESOLVED"/>
      <ItemData ItemOID="IT.AE.AESCAN" Value="N"/>
      <ItemData ItemOID="IT.AE.AESCONG" Value="N"/>
      <ItemData ItemOID="IT.AE.AESDISAB" Value="N"/>
      <ItemData ItemOID="IT.AE.AESDTH" Value="N"/>
      <ItemData ItemOID="IT.AE.AESHOSP" Value="N"/>
      <ItemData ItemOID="IT.AE.AESLIFE" Value="N"/>
      <ItemData ItemOID="IT.AE.AESOD" Value="N"/>
      <ItemData ItemOID="IT.AE.EPOCH" Value="TREATMENT"/>
      <ItemData ItemOID="IT.AE.AESTDTC" Value="2013-08-30"/>
      <ItemData ItemOID="IT.AE.AESTDY" Value="2"/>
      <ItemData ItemOID="IT.AE.AEENRTPT" Value="ONGOING"/>
      <ItemData ItemOID="IT.AE.AEENTPT" Value="2013-02-13"/>
    </ItemGroupData>
    <ItemGroupData ItemGroupOID="IG.AE" data:ItemGroupDataSeq="13">
      <ItemData ItemOID="IT.AE.STUDYID" Value="CDISCPILOT01"/>
      <ItemData ItemOID="IT.AE.DOMAIN" Value="AE"/>
      <ItemData ItemOID="IT.AE.USUBJID" Value="CDISC003"/>
      <ItemData ItemOID="IT.AE.AESEQ" Value="2"/>
      <ItemData ItemOID="IT.AE.AELNKID" Value="2"/>
      <ItemData ItemOID="IT.AE.AETERM" Value="STOMACH DISCOMFORT"/>
      <ItemData ItemOID="IT.AE.AESEV" Value="MILD"/>
      <ItemData ItemOID="IT.AE.AESER" Value="N"/>
      <ItemData ItemOID="IT.AE.AEACN" Value="DOSE NOT CHANGED"/>
      <ItemData ItemOID="IT.AE.AEREL" Value="POSSIBLY RELATED"/>
      <ItemData ItemOID="IT.AE.AEOUT" Value="NOT RECOVERED/NOT RESOLVED"/>
      <ItemData ItemOID="IT.AE.AESCAN" Value="N"/>
      <ItemData ItemOID="IT.AE.AESCONG" Value="N"/>
      <ItemData ItemOID="IT.AE.AESDISAB" Value="N"/>
      <ItemData ItemOID="IT.AE.AESDTH" Value="N"/>
      <ItemData ItemOID="IT.AE.AESHOSP" Value="N"/>
      <ItemData ItemOID="IT.AE.AESLIFE" Value="N"/>
      <ItemData ItemOID="IT.AE.AESOD" Value="N"/>
      <ItemData ItemOID="IT.AE.EPOCH" Value="TREATMENT"/>
      <ItemData ItemOID="IT.AE.AESTDTC" Value="2013-08-30"/>
      <ItemData ItemOID="IT.AE.AESTDY" Value="2"/>
      <ItemData ItemOID="IT.AE.AEENRTPT" Value="ONGOING"/>
      <ItemData ItemOID="IT.AE.AEENTPT" Value="2013-02-13"/>
    </ItemGroupData>
    <ItemGroupData ItemGroupOID="IG.AE" data:ItemGroupDataSeq="14">
      <ItemData ItemOID="IT.AE.STUDYID" Value="CDISCPILOT01"/>
      <ItemData ItemOID="IT.AE.DOMAIN" Value="AE"/>
      <ItemData ItemOID="IT.AE.USUBJID" Value="CDISC003"/>
      <ItemData ItemOID="IT.AE.AESEQ" Value="3"/>
      <ItemData ItemOID="IT.AE.AELNKID" Value="3"/>
      <ItemData ItemOID="IT.AE.AETERM" Value="PAIN"/>
      <ItemData ItemOID="IT.AE.AESEV" Value="MILD"/>
      <ItemData ItemOID="IT.AE.AESER" Value="N"/>
      <ItemData ItemOID="IT.AE.AEACN" Value="DOSE NOT CHANGED"/>
      <ItemData ItemOID="IT.AE.AEREL" Value="POSSIBLY RELATED"/>
      <ItemData ItemOID="IT.AE.AEOUT" Value="NOT RECOVERED/NOT RESOLVED"/>
      <ItemData ItemOID="IT.AE.AESCAN" Value="N"/>
      <ItemData ItemOID="IT.AE.AESCONG" Value="N"/>
      <ItemData ItemOID="IT.AE.AESDISAB" Value="N"/>
      <ItemData ItemOID="IT.AE.AESDTH" Value="N"/>
      <ItemData ItemOID="IT.AE.AESHOSP" Value="N"/>
      <ItemData ItemOID="IT.AE.AESLIFE" Value="N"/>
      <ItemData ItemOID="IT.AE.AESOD" Value="N"/>
      <ItemData ItemOID="IT.AE.EPOCH" Value="TREATMENT"/>
      <ItemData ItemOID="IT.AE.AESTDTC" Value="2013-08-31"/>
      <ItemData ItemOID="IT.AE.AESTDY" Value="3"/>
      <ItemData ItemOID="IT.AE.AEENRTPT" Value="ONGOING"/>
      <ItemData ItemOID="IT.AE.AEENTPT" Value="2013-02-13"/>
    </ItemGroupData>
    <ItemGroupData ItemGroupOID="IG.AE" data:ItemGroupDataSeq="15">
      <ItemData ItemOID="IT.AE.STUDYID" Value="CDISCPILOT01"/>
      <ItemData ItemOID="IT.AE.DOMAIN" Value="AE"/>
      <ItemData ItemOID="IT.AE.USUBJID" Value="CDISC003"/>
      <ItemData ItemOID="IT.AE.AESEQ" Value="4"/>
      <ItemData ItemOID="IT.AE.AELNKID" Value="4"/>
      <ItemData ItemOID="IT.AE.AETERM" Value="NASAL CONGESTION"/>
      <ItemData ItemOID="IT.AE.AESEV" Value="MILD"/>
      <ItemData ItemOID="IT.AE.AESER" Value="N"/>
      <ItemData ItemOID="IT.AE.AEACN" Value="DOSE NOT CHANGED"/>
      <ItemData ItemOID="IT.AE.AEREL" Value="NOT RELATED"/>
      <ItemData ItemOID="IT.AE.AEOUT" Value="NOT RECOVERED/NOT RESOLVED"/>
      <ItemData ItemOID="IT.AE.AESCAN" Value="N"/>
      <ItemData ItemOID="IT.AE.AESCONG" Value="N"/>
      <ItemData ItemOID="IT.AE.AESDISAB" Value="N"/>
      <ItemData ItemOID="IT.AE.AESDTH" Value="N"/>
      <ItemData ItemOID="IT.AE.AESHOSP" Value="N"/>
      <ItemData ItemOID="IT.AE.AESLIFE" Value="N"/>
      <ItemData ItemOID="IT.AE.AESOD" Value="N"/>
      <ItemData ItemOID="IT.AE.EPOCH" Value="TREATMENT"/>
      <ItemData ItemOID="IT.AE.AESTDTC" Value="2013-09-01"/>
      <ItemData ItemOID="IT.AE.AESTDY" Value="4"/>
      <ItemData ItemOID="IT.AE.AEENRTPT" Value="ONGOING"/>
      <ItemData ItemOID="IT.AE.AEENTPT" Value="2013-02-13"/>
    </ItemGroupData>
    <ItemGroupData ItemGroupOID="IG.AE" data:ItemGroupDataSeq="16">
      <ItemData ItemOID="IT.AE.STUDYID" Value="CDISCPILOT01"/>
      <ItemData ItemOID="IT.AE.DOMAIN" Value="AE"/>
      <ItemData ItemOID="IT.AE.USUBJID" Value="CDISC003"/>
      <ItemData ItemOID="IT.AE.AESEQ" Value="5"/>
      <ItemData ItemOID="IT.AE.AELNKID" Value="5"/>
      <ItemData ItemOID="IT.AE.AETERM" Value="MALAISE"/>
      <ItemData ItemOID="IT.AE.AESEV" Value="MODERATE"/>
      <ItemData ItemOID="IT.AE.AESER" Value="N"/>
      <ItemData ItemOID="IT.AE.AEACN" Value="DOSE NOT CHANGED"/>
      <ItemData ItemOID="IT.AE.AEREL" Value="UNLIKELY RELATED"/>
      <ItemData ItemOID="IT.AE.AEOUT" Value="NOT RECOVERED/NOT RESOLVED"/>
      <ItemData ItemOID="IT.AE.AESCAN" Value="N"/>
      <ItemData ItemOID="IT.AE.AESCONG" Value="N"/>
      <ItemData ItemOID="IT.AE.AESDISAB" Value="N"/>
      <ItemData ItemOID="IT.AE.AESDTH" Value="N"/>
      <ItemData ItemOID="IT.AE.AESHOSP" Value="N"/>
      <ItemData ItemOID="IT.AE.AESLIFE" Value="N"/>
      <ItemData ItemOID="IT.AE.AESOD" Value="N"/>
      <ItemData ItemOID="IT.AE.EPOCH" Value="TREATMENT"/>
      <ItemData ItemOID="IT.AE.AESTDTC" Value="2013-09-02"/>
      <ItemData ItemOID="IT.AE.AESTDY" Value="5"/>
      <ItemData ItemOID="IT.AE.AEENRTPT" Value="ONGOING"/>
      <ItemData ItemOID="IT.AE.AEENTPT" Value="2013-02-13"/>
    </ItemGroupData>
    <ItemGroupData ItemGroupOID="IG.AE" data:ItemGroupDataSeq="17">
      <ItemData ItemOID="IT.AE.STUDYID" Value="CDISCPILOT01"/>
      <ItemData ItemOID="IT.AE.DOMAIN" Value="AE"/>
      <ItemData ItemOID="IT.AE.USUBJID" Value="CDISC003"/>
      <ItemData ItemOID="IT.AE.AESEQ" Value="6"/>
      <ItemData ItemOID="IT.AE.AELNKID" Value="6"/>
      <ItemData ItemOID="IT.AE.AETERM" Value="MYALGIA"/>
      <ItemData ItemOID="IT.AE.AESEV" Value="MILD"/>
      <ItemData ItemOID="IT.AE.AESER" Value="N"/>
      <ItemData ItemOID="IT.AE.AEACN" Value="DOSE NOT CHANGED"/>
      <ItemData ItemOID="IT.AE.AEREL" Value="POSSIBLY RELATED"/>
      <ItemData ItemOID="IT.AE.AEOUT" Value="NOT RECOVERED/NOT RESOLVED"/>
      <ItemData ItemOID="IT.AE.AESCAN" Value="N"/>
      <ItemData ItemOID="IT.AE.AESCONG" Value="N"/>
      <ItemData ItemOID="IT.AE.AESDISAB" Value="N"/>
      <ItemData ItemOID="IT.AE.AESDTH" Value="N"/>
      <ItemData ItemOID="IT.AE.AESHOSP" Value="N"/>
      <ItemData ItemOID="IT.AE.AESLIFE" Value="N"/>
      <ItemData ItemOID="IT.AE.AESOD" Value="N"/>
      <ItemData ItemOID="IT.AE.EPOCH" Value="TREATMENT"/>
      <ItemData ItemOID="IT.AE.AESTDTC" Value="2013-09-02"/>
      <ItemData ItemOID="IT.AE.AESTDY" Value="5"/>
      <ItemData ItemOID="IT.AE.AEENRTPT" Value="ONGOING"/>
      <ItemData ItemOID="IT.AE.AEENTPT" Value="2013-02-13"/>
    </ItemGroupData>
    <ItemGroupData ItemGroupOID="IG.AE" data:ItemGroupDataSeq="18">
      <ItemData ItemOID="IT.AE.STUDYID" Value="CDISCPILOT01"/>
      <ItemData ItemOID="IT.AE.DOMAIN" Value="AE"/>
      <ItemData ItemOID="IT.AE.USUBJID" Value="CDISC003"/>
      <ItemData ItemOID="IT.AE.AESEQ" Value="7"/>
      <ItemData ItemOID="IT.AE.AELNKID" Value="7"/>
      <ItemData ItemOID="IT.AE.AETERM" Value="PHARYNGOLARYNGEAL PAIN"/>
      <ItemData ItemOID="IT.AE.AESEV" Value="MILD"/>
      <ItemData ItemOID="IT.AE.AESER" Value="N"/>
      <ItemData ItemOID="IT.AE.AEACN" Value="DOSE NOT CHANGED"/>
      <ItemData ItemOID="IT.AE.AEREL" Value="NOT RELATED"/>
      <ItemData ItemOID="IT.AE.AEOUT" Value="NOT RECOVERED/NOT RESOLVED"/>
      <ItemData ItemOID="IT.AE.AESCAN" Value="N"/>
      <ItemData ItemOID="IT.AE.AESCONG" Value="N"/>
      <ItemData ItemOID="IT.AE.AESDISAB" Value="N"/>
      <ItemData ItemOID="IT.AE.AESDTH" Value="N"/>
      <ItemData ItemOID="IT.AE.AESHOSP" Value="N"/>
      <ItemData ItemOID="IT.AE.AESLIFE" Value="N"/>
      <ItemData ItemOID="IT.AE.AESOD" Value="N"/>
      <ItemData ItemOID="IT.AE.EPOCH" Value="TREATMENT"/>
      <ItemData ItemOID="IT.AE.AESTDTC" Value="2013-09-02"/>
      <ItemData ItemOID="IT.AE.AESTDY" Value="5"/>
      <ItemData ItemOID="IT.AE.AEENRTPT" Value="ONGOING"/>
      <ItemData ItemOID="IT.AE.AEENTPT" Value="2013-02-13"/>
    </ItemGroupData>
    <ItemGroupData ItemGroupOID="IG.AE" data:ItemGroupDataSeq="19">
      <ItemData ItemOID="IT.AE.STUDYID" Value="CDISCPILOT01"/>
      <ItemData ItemOID="IT.AE.DOMAIN" Value="AE"/>
      <ItemData ItemOID="IT.AE.USUBJID" Value="CDISC003"/>
      <ItemData ItemOID="IT.AE.AESEQ" Value="8"/>
      <ItemData ItemOID="IT.AE.AELNKID" Value="8"/>
      <ItemData ItemOID="IT.AE.AETERM" Value="PRODUCTIVE COUGH"/>
      <ItemData ItemOID="IT.AE.AESEV" Value="MILD"/>
      <ItemData ItemOID="IT.AE.AESER" Value="N"/>
      <ItemData ItemOID="IT.AE.AEACN" Value="DOSE NOT CHANGED"/>
      <ItemData ItemOID="IT.AE.AEREL" Value="NOT RELATED"/>
      <ItemData ItemOID="IT.AE.AEOUT" Value="NOT RECOVERED/NOT RESOLVED"/>
      <ItemData ItemOID="IT.AE.AESCAN" Value="N"/>
      <ItemData ItemOID="IT.AE.AESCONG" Value="N"/>
      <ItemData ItemOID="IT.AE.AESDISAB" Value="N"/>
      <ItemData ItemOID="IT.AE.AESDTH" Value="N"/>
      <ItemData ItemOID="IT.AE.AESHOSP" Value="N"/>
      <ItemData ItemOID="IT.AE.AESLIFE" Value="N"/>
      <ItemData ItemOID="IT.AE.AESOD" Value="N"/>
      <ItemData ItemOID="IT.AE.EPOCH" Value="TREATMENT"/>
      <ItemData ItemOID="IT.AE.AESTDTC" Value="2013-09-02"/>
      <ItemData ItemOID="IT.AE.AESTDY" Value="5"/>
      <ItemData ItemOID="IT.AE.AEENRTPT" Value="ONGOING"/>
      <ItemData ItemOID="IT.AE.AEENTPT" Value="2013-02-13"/>
    </ItemGroupData>
    <ItemGroupData ItemGroupOID="IG.AE" data:ItemGroupDataSeq="20">
      <ItemData ItemOID="IT.AE.STUDYID" Value="CDISCPILOT01"/>
      <ItemData ItemOID="IT.AE.DOMAIN" Value="AE"/>
      <ItemData ItemOID="IT.AE.USUBJID" Value="CDISC003"/>
      <ItemData ItemOID="IT.AE.AESEQ" Value="9"/>
      <ItemData ItemOID="IT.AE.AELNKID" Value="9"/>
      <ItemData ItemOID="IT.AE.AETERM" Value="DIZZINESS"/>
      <ItemData ItemOID="IT.AE.AESEV" Value="MODERATE"/>
      <ItemData ItemOID="IT.AE.AESER" Value="N"/>
      <ItemData ItemOID="IT.AE.AEACN" Value="DOSE NOT CHANGED"/>
      <ItemData ItemOID="IT.AE.AEREL" Value="UNLIKELY RELATED"/>
      <ItemData ItemOID="IT.AE.AEOUT" Value="RECOVERED/RESOLVED"/>
      <ItemData ItemOID="IT.AE.AESCAN" Value="N"/>
      <ItemData ItemOID="IT.AE.AESCONG" Value="N"/>
      <ItemData ItemOID="IT.AE.AESDISAB" Value="N"/>
      <ItemData ItemOID="IT.AE.AESDTH" Value="N"/>
      <ItemData ItemOID="IT.AE.AESHOSP" Value="N"/>
      <ItemData ItemOID="IT.AE.AESLIFE" Value="N"/>
      <ItemData ItemOID="IT.AE.AESOD" Value="N"/>
      <ItemData ItemOID="IT.AE.EPOCH" Value="TREATMENT"/>
      <ItemData ItemOID="IT.AE.AESTDTC" Value="2013-09-02"/>
      <ItemData ItemOID="IT.AE.AEENDTC" Value="2013-09-03"/>
      <ItemData ItemOID="IT.AE.AESTDY" Value="5"/>
      <ItemData ItemOID="IT.AE.AEENDY" Value="6"/>
    </ItemGroupData>
    <ItemGroupData ItemGroupOID="IG.AE" data:ItemGroupDataSeq="21">
      <ItemData ItemOID="IT.AE.STUDYID" Value="CDISCPILOT01"/>
      <ItemData ItemOID="IT.AE.DOMAIN" Value="AE"/>
      <ItemData ItemOID="IT.AE.USUBJID" Value="CDISC003"/>
      <ItemData ItemOID="IT.AE.AESEQ" Value="10"/>
      <ItemData ItemOID="IT.AE.AELNKID" Value="10"/>
      <ItemData ItemOID="IT.AE.AETERM" Value="DIZZINESS"/>
      <ItemData ItemOID="IT.AE.AESEV" Value="MILD"/>
      <ItemData ItemOID="IT.AE.AESER" Value="N"/>
      <ItemData ItemOID="IT.AE.AEACN" Value="DOSE NOT CHANGED"/>
      <ItemData ItemOID="IT.AE.AEREL" Value="POSSIBLY RELATED"/>
      <ItemData ItemOID="IT.AE.AEOUT" Value="NOT RECOVERED/NOT RESOLVED"/>
      <ItemData ItemOID="IT.AE.AESCAN" Value="N"/>
      <ItemData ItemOID="IT.AE.AESCONG" Value="N"/>
      <ItemData ItemOID="IT.AE.AESDISAB" Value="N"/>
      <ItemData ItemOID="IT.AE.AESDTH" Value="N"/>
      <ItemData ItemOID="IT.AE.AESHOSP" Value="N"/>
      <ItemData ItemOID="IT.AE.AESLIFE" Value="N"/>
      <ItemData ItemOID="IT.AE.AESOD" Value="N"/>
      <ItemData ItemOID="IT.AE.EPOCH" Value="TREATMENT"/>
      <ItemData ItemOID="IT.AE.AESTDTC" Value="2013-09-04"/>
      <ItemData ItemOID="IT.AE.AESTDY" Value="7"/>
      <ItemData ItemOID="IT.AE.AEENRTPT" Value="ONGOING"/>
      <ItemData ItemOID="IT.AE.AEENTPT" Value="2013-02-13"/>
    </ItemGroupData>
    <ItemGroupData ItemGroupOID="IG.AE" data:ItemGroupDataSeq="22">
      <ItemData ItemOID="IT.AE.STUDYID" Value="CDISCPILOT01"/>
      <ItemData ItemOID="IT.AE.DOMAIN" Value="AE"/>
      <ItemData ItemOID="IT.AE.USUBJID" Value="CDISC003"/>
      <ItemData ItemOID="IT.AE.AESEQ" Value="11"/>
      <ItemData ItemOID="IT.AE.AELNKID" Value="11"/>
      <ItemData ItemOID="IT.AE.AETERM" Value="CONTUSION"/>
      <ItemData ItemOID="IT.AE.AESEV" Value="MILD"/>
      <ItemData ItemOID="IT.AE.AESER" Value="N"/>
      <ItemData ItemOID="IT.AE.AEACN" Value="DOSE NOT CHANGED"/>
      <ItemData ItemOID="IT.AE.AEREL" Value="UNLIKELY RELATED"/>
      <ItemData ItemOID="IT.AE.AEOUT" Value="RECOVERED/RESOLVED"/>
      <ItemData ItemOID="IT.AE.AESCAN" Value="N"/>
      <ItemData ItemOID="IT.AE.AESCONG" Value="N"/>
      <ItemData ItemOID="IT.AE.AESDISAB" Value="N"/>
      <ItemData ItemOID="IT.AE.AESDTH" Value="N"/>
      <ItemData ItemOID="IT.AE.AESHOSP" Value="N"/>
      <ItemData ItemOID="IT.AE.AESLIFE" Value="N"/>
      <ItemData ItemOID="IT.AE.AESOD" Value="N"/>
      <ItemData ItemOID="IT.AE.EPOCH" Value="TREATMENT"/>
      <ItemData ItemOID="IT.AE.AESTDTC" Value="2013-09-05"/>
      <ItemData ItemOID="IT.AE.AEENDTC" Value="2013-10-08"/>
      <ItemData ItemOID="IT.AE.AESTDY" Value="8"/>
      <ItemData ItemOID="IT.AE.AEENDY" Value="41"/>
    </ItemGroupData>
    <ItemGroupData ItemGroupOID="IG.AE" data:ItemGroupDataSeq="23">
      <ItemData ItemOID="IT.AE.STUDYID" Value="CDISCPILOT01"/>
      <ItemData ItemOID="IT.AE.DOMAIN" Value="AE"/>
      <ItemData ItemOID="IT.AE.USUBJID" Value="CDISC003"/>
      <ItemData ItemOID="IT.AE.AESEQ" Value="12"/>
      <ItemData ItemOID="IT.AE.AELNKID" Value="12"/>
      <ItemData ItemOID="IT.AE.AETERM" Value="HEADACHE"/>
      <ItemData ItemOID="IT.AE.AESEV" Value="MILD"/>
      <ItemData ItemOID="IT.AE.AESER" Value="N"/>
      <ItemData ItemOID="IT.AE.AEACN" Value="DOSE NOT CHANGED"/>
      <ItemData ItemOID="IT.AE.AEREL" Value="NOT RELATED"/>
      <ItemData ItemOID="IT.AE.AEOUT" Value="NOT RECOVERED/NOT RESOLVED"/>
      <ItemData ItemOID="IT.AE.AESCAN" Value="N"/>
      <ItemData ItemOID="IT.AE.AESCONG" Value="N"/>
      <ItemData ItemOID="IT.AE.AESDISAB" Value="N"/>
      <ItemData ItemOID="IT.AE.AESDTH" Value="N"/>
      <ItemData ItemOID="IT.AE.AESHOSP" Value="N"/>
      <ItemData ItemOID="IT.AE.AESLIFE" Value="N"/>
      <ItemData ItemOID="IT.AE.AESOD" Value="N"/>
      <ItemData ItemOID="IT.AE.EPOCH" Value="TREATMENT"/>
      <ItemData ItemOID="IT.AE.AESTDTC" Value="2013-09-15"/>
      <ItemData ItemOID="IT.AE.AESTDY" Value="18"/>
      <ItemData ItemOID="IT.AE.AEENRTPT" Value="ONGOING"/>
      <ItemData ItemOID="IT.AE.AEENTPT" Value="2013-02-13"/>
    </ItemGroupData>
    <ItemGroupData ItemGroupOID="IG.AE" data:ItemGroupDataSeq="24">
      <ItemData ItemOID="IT.AE.STUDYID" Value="CDISCPILOT01"/>
      <ItemData ItemOID="IT.AE.DOMAIN" Value="AE"/>
      <ItemData ItemOID="IT.AE.USUBJID" Value="CDISC003"/>
      <ItemData ItemOID="IT.AE.AESEQ" Value="13"/>
      <ItemData ItemOID="IT.AE.AELNKID" Value="13"/>
      <ItemData ItemOID="IT.AE.AETERM" Value="EPISTAXIS"/>
      <ItemData ItemOID="IT.AE.AESEV" Value="MILD"/>
      <ItemData ItemOID="IT.AE.AESER" Value="Y"/>
      <ItemData ItemOID="IT.AE.AEACN" Value="DOSE NOT CHANGED"/>
      <ItemData ItemOID="IT.AE.AEREL" Value="UNLIKELY RELATED"/>
      <ItemData ItemOID="IT.AE.AEOUT" Value="NOT RECOVERED/NOT RESOLVED"/>
      <ItemData ItemOID="IT.AE.AESCAN" Value="N"/>
      <ItemData ItemOID="IT.AE.AESCONG" Value="N"/>
      <ItemData ItemOID="IT.AE.AESDISAB" Value="N"/>
      <ItemData ItemOID="IT.AE.AESDTH" Value="N"/>
      <ItemData ItemOID="IT.AE.AESHOSP" Value="N"/>
      <ItemData ItemOID="IT.AE.AESLIFE" Value="N"/>
      <ItemData ItemOID="IT.AE.AESOD" Value="N"/>
      <ItemData ItemOID="IT.AE.EPOCH" Value="TREATMENT"/>
      <ItemData ItemOID="IT.AE.AESTDTC" Value="2013-09-30"/>
      <ItemData ItemOID="IT.AE.AESTDY" Value="33"/>
      <ItemData ItemOID="IT.AE.AEENRTPT" Value="ONGOING"/>
      <ItemData ItemOID="IT.AE.AEENTPT" Value="2013-02-13"/>
    </ItemGroupData>
    <ItemGroupData ItemGroupOID="IG.AE" data:ItemGroupDataSeq="25">
      <ItemData ItemOID="IT.AE.STUDYID" Value="CDISCPILOT01"/>
      <ItemData ItemOID="IT.AE.DOMAIN" Value="AE"/>
      <ItemData ItemOID="IT.AE.USUBJID" Value="CDISC003"/>
      <ItemData ItemOID="IT.AE.AESEQ" Value="14"/>
      <ItemData ItemOID="IT.AE.AELNKID" Value="14"/>
      <ItemData ItemOID="IT.AE.AETERM" Value="INJECTION SITE REACTION"/>
      <ItemData ItemOID="IT.AE.AESEV" Value="MILD"/>
      <ItemData ItemOID="IT.AE.AESER" Value="N"/>
      <ItemData ItemOID="IT.AE.AEACN" Value="DOSE NOT CHANGED"/>
      <ItemData ItemOID="IT.AE.AEREL" Value="RELATED"/>
      <ItemData ItemOID="IT.AE.AEOUT" Value="NOT RECOVERED/NOT RESOLVED"/>
      <ItemData ItemOID="IT.AE.AESCAN" Value="N"/>
      <ItemData ItemOID="IT.AE.AESCONG" Value="N"/>
      <ItemData ItemOID="IT.AE.AESDISAB" Value="N"/>
      <ItemData ItemOID="IT.AE.AESDTH" Value="N"/>
      <ItemData ItemOID="IT.AE.AESHOSP" Value="N"/>
      <ItemData ItemOID="IT.AE.AESLIFE" Value="N"/>
      <ItemData ItemOID="IT.AE.AESOD" Value="N"/>
      <ItemData ItemOID="IT.AE.EPOCH" Value="TREATMENT"/>
      <ItemData ItemOID="IT.AE.AESTDTC" Value="2013-10-15"/>
      <ItemData ItemOID="IT.AE.AESTDY" Value="48"/>
      <ItemData ItemOID="IT.AE.AEENRTPT" Value="ONGOING"/>
      <ItemData ItemOID="IT.AE.AEENTPT" Value="2013-02-13"/>
    </ItemGroupData>
    <ItemGroupData ItemGroupOID="IG.AE" data:ItemGroupDataSeq="26">
      <ItemData ItemOID="IT.AE.STUDYID" Value="CDISCPILOT01"/>
      <ItemData ItemOID="IT.AE.DOMAIN" Value="AE"/>
      <ItemData ItemOID="IT.AE.USUBJID" Value="CDISC003"/>
      <ItemData ItemOID="IT.AE.AESEQ" Value="15"/>
      <ItemData ItemOID="IT.AE.AELNKID" Value="16"/>
      <ItemData ItemOID="IT.AE.AETERM" Value="RESPIRATORY TRACT CONGESTION"/>
      <ItemData ItemOID="IT.AE.AESEV" Value="MILD"/>
      <ItemData ItemOID="IT.AE.AESER" Value="N"/>
      <ItemData ItemOID="IT.AE.AEACN" Value="DOSE NOT CHANGED"/>
      <ItemData ItemOID="IT.AE.AEREL" Value="NOT RELATED"/>
      <ItemData ItemOID="IT.AE.AEOUT" Value="NOT RECOVERED/NOT RESOLVED"/>
      <ItemData ItemOID="IT.AE.AESCAN" Value="N"/>
      <ItemData ItemOID="IT.AE.AESCONG" Value="N"/>
      <ItemData ItemOID="IT.AE.AESDISAB" Value="N"/>
      <ItemData ItemOID="IT.AE.AESDTH" Value="N"/>
      <ItemData ItemOID="IT.AE.AESHOSP" Value="N"/>
      <ItemData ItemOID="IT.AE.AESLIFE" Value="N"/>
      <ItemData ItemOID="IT.AE.AESOD" Value="N"/>
      <ItemData ItemOID="IT.AE.EPOCH" Value="TREATMENT"/>
      <ItemData ItemOID="IT.AE.AESTDTC" Value="2013-10-23"/>
      <ItemData ItemOID="IT.AE.AESTDY" Value="56"/>
      <ItemData ItemOID="IT.AE.AEENRTPT" Value="ONGOING"/>
      <ItemData ItemOID="IT.AE.AEENTPT" Value="2013-02-13"/>
    </ItemGroupData>
    <ItemGroupData ItemGroupOID="IG.AE" data:ItemGroupDataSeq="27">
      <ItemData ItemOID="IT.AE.STUDYID" Value="CDISCPILOT01"/>
      <ItemData ItemOID="IT.AE.DOMAIN" Value="AE"/>
      <ItemData ItemOID="IT.AE.USUBJID" Value="CDISC003"/>
      <ItemData ItemOID="IT.AE.AESEQ" Value="16"/>
      <ItemData ItemOID="IT.AE.AELNKID" Value="17"/>
      <ItemData ItemOID="IT.AE.AETERM" Value="RHINITIS"/>
      <ItemData ItemOID="IT.AE.AESEV" Value="MILD"/>
      <ItemData ItemOID="IT.AE.AESER" Value="N"/>
      <ItemData ItemOID="IT.AE.AEACN" Value="DOSE NOT CHANGED"/>
      <ItemData ItemOID="IT.AE.AEREL" Value="NOT RELATED"/>
      <ItemData ItemOID="IT.AE.AEOUT" Value="NOT RECOVERED/NOT RESOLVED"/>
      <ItemData ItemOID="IT.AE.AESCAN" Value="N"/>
      <ItemData ItemOID="IT.AE.AESCONG" Value="N"/>
      <ItemData ItemOID="IT.AE.AESDISAB" Value="N"/>
      <ItemData ItemOID="IT.AE.AESDTH" Value="N"/>
      <ItemData ItemOID="IT.AE.AESHOSP" Value="N"/>
      <ItemData ItemOID="IT.AE.AESLIFE" Value="N"/>
      <ItemData ItemOID="IT.AE.AESOD" Value="N"/>
      <ItemData ItemOID="IT.AE.EPOCH" Value="TREATMENT"/>
      <ItemData ItemOID="IT.AE.AESTDTC" Value="2013-10-23"/>
      <ItemData ItemOID="IT.AE.AESTDY" Value="56"/>
      <ItemData ItemOID="IT.AE.AEENRTPT" Value="ONGOING"/>
      <ItemData ItemOID="IT.AE.AEENTPT" Value="2013-02-13"/>
    </ItemGroupData>
    <ItemGroupData ItemGroupOID="IG.AE" data:ItemGroupDataSeq="28">
      <ItemData ItemOID="IT.AE.STUDYID" Value="CDISCPILOT01"/>
      <ItemData ItemOID="IT.AE.DOMAIN" Value="AE"/>
      <ItemData ItemOID="IT.AE.USUBJID" Value="CDISC003"/>
      <ItemData ItemOID="IT.AE.AESEQ" Value="17"/>
      <ItemData ItemOID="IT.AE.AELNKID" Value="18"/>
      <ItemData ItemOID="IT.AE.AETERM" Value="FEELING ABNORMAL"/>
      <ItemData ItemOID="IT.AE.AESEV" Value="MILD"/>
      <ItemData ItemOID="IT.AE.AESER" Value="N"/>
      <ItemData ItemOID="IT.AE.AEACN" Value="DOSE NOT CHANGED"/>
      <ItemData ItemOID="IT.AE.AEREL" Value="POSSIBLY RELATED"/>
      <ItemData ItemOID="IT.AE.AEOUT" Value="NOT RECOVERED/NOT RESOLVED"/>
      <ItemData ItemOID="IT.AE.AESCAN" Value="N"/>
      <ItemData ItemOID="IT.AE.AESCONG" Value="N"/>
      <ItemData ItemOID="IT.AE.AESDISAB" Value="N"/>
      <ItemData ItemOID="IT.AE.AESDTH" Value="N"/>
      <ItemData ItemOID="IT.AE.AESHOSP" Value="N"/>
      <ItemData ItemOID="IT.AE.AESLIFE" Value="N"/>
      <ItemData ItemOID="IT.AE.AESOD" Value="N"/>
      <ItemData ItemOID="IT.AE.EPOCH" Value="TREATMENT"/>
      <ItemData ItemOID="IT.AE.AESTDTC" Value="2013-10-24"/>
      <ItemData ItemOID="IT.AE.AESTDY" Value="57"/>
      <ItemData ItemOID="IT.AE.AEENRTPT" Value="ONGOING"/>
      <ItemData ItemOID="IT.AE.AEENTPT" Value="2013-02-13"/>
    </ItemGroupData>
    <ItemGroupData ItemGroupOID="IG.AE" data:ItemGroupDataSeq="29">
      <ItemData ItemOID="IT.AE.STUDYID" Value="CDISCPILOT01"/>
      <ItemData ItemOID="IT.AE.DOMAIN" Value="AE"/>
      <ItemData ItemOID="IT.AE.USUBJID" Value="CDISC003"/>
      <ItemData ItemOID="IT.AE.AESEQ" Value="18"/>
      <ItemData ItemOID="IT.AE.AELNKID" Value="19"/>
      <ItemData ItemOID="IT.AE.AETERM" Value="LIBIDO DECREASED"/>
      <ItemData ItemOID="IT.AE.AESEV" Value="MILD"/>
      <ItemData ItemOID="IT.AE.AESER" Value="N"/>
      <ItemData ItemOID="IT.AE.AEACN" Value="DOSE NOT CHANGED"/>
      <ItemData ItemOID="IT.AE.AEREL" Value="POSSIBLY RELATED"/>
      <ItemData ItemOID="IT.AE.AEOUT" Value="NOT RECOVERED/NOT RESOLVED"/>
      <ItemData ItemOID="IT.AE.AESCAN" Value="N"/>
      <ItemData ItemOID="IT.AE.AESCONG" Value="N"/>
      <ItemData ItemOID="IT.AE.AESDISAB" Value="N"/>
      <ItemData ItemOID="IT.AE.AESDTH" Value="N"/>
      <ItemData ItemOID="IT.AE.AESHOSP" Value="N"/>
      <ItemData ItemOID="IT.AE.AESLIFE" Value="N"/>
      <ItemData ItemOID="IT.AE.AESOD" Value="N"/>
      <ItemData ItemOID="IT.AE.EPOCH" Value="TREATMENT"/>
      <ItemData ItemOID="IT.AE.AESTDTC" Value="2013-10-24"/>
      <ItemData ItemOID="IT.AE.AESTDY" Value="57"/>
      <ItemData ItemOID="IT.AE.AEENRTPT" Value="ONGOING"/>
      <ItemData ItemOID="IT.AE.AEENTPT" Value="2013-02-13"/>
    </ItemGroupData>
    <ItemGroupData ItemGroupOID="IG.AE" data:ItemGroupDataSeq="30">
      <ItemData ItemOID="IT.AE.STUDYID" Value="CDISCPILOT01"/>
      <ItemData ItemOID="IT.AE.DOMAIN" Value="AE"/>
      <ItemData ItemOID="IT.AE.USUBJID" Value="CDISC003"/>
      <ItemData ItemOID="IT.AE.AESEQ" Value="19"/>
      <ItemData ItemOID="IT.AE.AELNKID" Value="20"/>
      <ItemData ItemOID="IT.AE.AETERM" Value="LISTLESS"/>
      <ItemData ItemOID="IT.AE.AESEV" Value="MILD"/>
      <ItemData ItemOID="IT.AE.AESER" Value="N"/>
      <ItemData ItemOID="IT.AE.AEACN" Value="DRUG WITHDRAWN"/>
      <ItemData ItemOID="IT.AE.AEREL" Value="POSSIBLY RELATED"/>
      <ItemData ItemOID="IT.AE.AEOUT" Value="NOT RECOVERED/NOT RESOLVED"/>
      <ItemData ItemOID="IT.AE.AESCAN" Value="N"/>
      <ItemData ItemOID="IT.AE.AESCONG" Value="N"/>
      <ItemData ItemOID="IT.AE.AESDISAB" Value="N"/>
      <ItemData ItemOID="IT.AE.AESDTH" Value="N"/>
      <ItemData ItemOID="IT.AE.AESHOSP" Value="N"/>
      <ItemData ItemOID="IT.AE.AESLIFE" Value="N"/>
      <ItemData ItemOID="IT.AE.AESOD" Value="N"/>
      <ItemData ItemOID="IT.AE.EPOCH" Value="TREATMENT"/>
      <ItemData ItemOID="IT.AE.AESTDTC" Value="2013-10-24"/>
      <ItemData ItemOID="IT.AE.AESTDY" Value="57"/>
      <ItemData ItemOID="IT.AE.AEENRTPT" Value="ONGOING"/>
      <ItemData ItemOID="IT.AE.AEENTPT" Value="2013-02-13"/>
    </ItemGroupData>
    <ItemGroupData ItemGroupOID="IG.AE" data:ItemGroupDataSeq="31">
      <ItemData ItemOID="IT.AE.STUDYID" Value="CDISCPILOT01"/>
      <ItemData ItemOID="IT.AE.DOMAIN" Value="AE"/>
      <ItemData ItemOID="IT.AE.USUBJID" Value="CDISC005"/>
      <ItemData ItemOID="IT.AE.AESEQ" Value="1"/>
      <ItemData ItemOID="IT.AE.AELNKID" Value="1"/>
      <ItemData ItemOID="IT.AE.AETERM" Value="INJECTION SITE REACTION"/>
      <ItemData ItemOID="IT.AE.AESEV" Value="MILD"/>
      <ItemData ItemOID="IT.AE.AESER" Value="N"/>
      <ItemData ItemOID="IT.AE.AEACN" Value="DOSE NOT CHANGED"/>
      <ItemData ItemOID="IT.AE.AEREL" Value="RELATED"/>
      <ItemData ItemOID="IT.AE.AEOUT" Value="RECOVERED/RESOLVED"/>
      <ItemData ItemOID="IT.AE.AESCAN" Value="N"/>
      <ItemData ItemOID="IT.AE.AESCONG" Value="N"/>
      <ItemData ItemOID="IT.AE.AESDISAB" Value="N"/>
      <ItemData ItemOID="IT.AE.AESDTH" Value="N"/>
      <ItemData ItemOID="IT.AE.AESHOSP" Value="N"/>
      <ItemData ItemOID="IT.AE.AESLIFE" Value="N"/>
      <ItemData ItemOID="IT.AE.AESOD" Value="N"/>
      <ItemData ItemOID="IT.AE.EPOCH" Value="TREATMENT"/>
      <ItemData ItemOID="IT.AE.AESTDTC" Value="2013-02-07"/>
      <ItemData ItemOID="IT.AE.AEENDTC" Value="2013-02-07"/>
      <ItemData ItemOID="IT.AE.AESTDY" Value="4"/>
      <ItemData ItemOID="IT.AE.AEENDY" Value="4"/>
    </ItemGroupData>
    <ItemGroupData ItemGroupOID="IG.AE" data:ItemGroupDataSeq="32">
      <ItemData ItemOID="IT.AE.STUDYID" Value="CDISCPILOT01"/>
      <ItemData ItemOID="IT.AE.DOMAIN" Value="AE"/>
      <ItemData ItemOID="IT.AE.USUBJID" Value="CDISC005"/>
      <ItemData ItemOID="IT.AE.AESEQ" Value="2"/>
      <ItemData ItemOID="IT.AE.AELNKID" Value="2"/>
      <ItemData ItemOID="IT.AE.AETERM" Value="INJECTION SITE REACTION"/>
      <ItemData ItemOID="IT.AE.AESEV" Value="MILD"/>
      <ItemData ItemOID="IT.AE.AESER" Value="N"/>
      <ItemData ItemOID="IT.AE.AEACN" Value="DOSE NOT CHANGED"/>
      <ItemData ItemOID="IT.AE.AEREL" Value="POSSIBLY RELATED"/>
      <ItemData ItemOID="IT.AE.AEOUT" Value="NOT RECOVERED/NOT RESOLVED"/>
      <ItemData ItemOID="IT.AE.AESCAN" Value="N"/>
      <ItemData ItemOID="IT.AE.AESCONG" Value="N"/>
      <ItemData ItemOID="IT.AE.AESDISAB" Value="N"/>
      <ItemData ItemOID="IT.AE.AESDTH" Value="N"/>
      <ItemData ItemOID="IT.AE.AESHOSP" Value="N"/>
      <ItemData ItemOID="IT.AE.AESLIFE" Value="N"/>
      <ItemData ItemOID="IT.AE.AESOD" Value="N"/>
      <ItemData ItemOID="IT.AE.EPOCH" Value="TREATMENT"/>
      <ItemData ItemOID="IT.AE.AESTDTC" Value="2013-03-23"/>
      <ItemData ItemOID="IT.AE.AESTDY" Value="48"/>
      <ItemData ItemOID="IT.AE.AEENRTPT" Value="ONGOING"/>
      <ItemData ItemOID="IT.AE.AEENTPT" Value="2013-08-06"/>
    </ItemGroupData>
    <ItemGroupData ItemGroupOID="IG.AE" data:ItemGroupDataSeq="33">
      <ItemData ItemOID="IT.AE.STUDYID" Value="CDISCPILOT01"/>
      <ItemData ItemOID="IT.AE.DOMAIN" Value="AE"/>
      <ItemData ItemOID="IT.AE.USUBJID" Value="CDISC005"/>
      <ItemData ItemOID="IT.AE.AESEQ" Value="3"/>
      <ItemData ItemOID="IT.AE.AELNKID" Value="4"/>
      <ItemData ItemOID="IT.AE.AETERM" Value="INJECTION SITE REACTION"/>
      <ItemData ItemOID="IT.AE.AESEV" Value="MILD"/>
      <ItemData ItemOID="IT.AE.AESER" Value="N"/>
      <ItemData ItemOID="IT.AE.AEACN" Value="DOSE NOT CHANGED"/>
      <ItemData ItemOID="IT.AE.AEREL" Value="POSSIBLY RELATED"/>
      <ItemData ItemOID="IT.AE.AEOUT" Value="RECOVERED/RESOLVED"/>
      <ItemData ItemOID="IT.AE.AESCAN" Value="N"/>
      <ItemData ItemOID="IT.AE.AESCONG" Value="N"/>
      <ItemData ItemOID="IT.AE.AESDISAB" Value="N"/>
      <ItemData ItemOID="IT.AE.AESDTH" Value="N"/>
      <ItemData ItemOID="IT.AE.AESHOSP" Value="N"/>
      <ItemData ItemOID="IT.AE.AESLIFE" Value="N"/>
      <ItemData ItemOID="IT.AE.AESOD" Value="N"/>
      <ItemData ItemOID="IT.AE.EPOCH" Value="TREATMENT"/>
      <ItemData ItemOID="IT.AE.AESTDTC" Value="2013-03-23"/>
      <ItemData ItemOID="IT.AE.AEENDTC" Value="2013-03-26"/>
      <ItemData ItemOID="IT.AE.AESTDY" Value="48"/>
      <ItemData ItemOID="IT.AE.AEENDY" Value="51"/>
    </ItemGroupData>
    <ItemGroupData ItemGroupOID="IG.AE" data:ItemGroupDataSeq="34">
      <ItemData ItemOID="IT.AE.STUDYID" Value="CDISCPILOT01"/>
      <ItemData ItemOID="IT.AE.DOMAIN" Value="AE"/>
      <ItemData ItemOID="IT.AE.USUBJID" Value="CDISC005"/>
      <ItemData ItemOID="IT.AE.AESEQ" Value="4"/>
      <ItemData ItemOID="IT.AE.AELNKID" Value="5"/>
      <ItemData ItemOID="IT.AE.AETERM" Value="INJECTION SITE REACTION"/>
      <ItemData ItemOID="IT.AE.AESEV" Value="MILD"/>
      <ItemData ItemOID="IT.AE.AESER" Value="N"/>
      <ItemData ItemOID="IT.AE.AEACN" Value="DOSE NOT CHANGED"/>
      <ItemData ItemOID="IT.AE.AEREL" Value="POSSIBLY RELATED"/>
      <ItemData ItemOID="IT.AE.AEOUT" Value="NOT RECOVERED/NOT RESOLVED"/>
      <ItemData ItemOID="IT.AE.AESCAN" Value="N"/>
      <ItemData ItemOID="IT.AE.AESCONG" Value="N"/>
      <ItemData ItemOID="IT.AE.AESDISAB" Value="N"/>
      <ItemData ItemOID="IT.AE.AESDTH" Value="N"/>
      <ItemData ItemOID="IT.AE.AESHOSP" Value="N"/>
      <ItemData ItemOID="IT.AE.AESLIFE" Value="N"/>
      <ItemData ItemOID="IT.AE.AESOD" Value="N"/>
      <ItemData ItemOID="IT.AE.EPOCH" Value="TREATMENT"/>
      <ItemData ItemOID="IT.AE.AESTDTC" Value="2013-04-12"/>
      <ItemData ItemOID="IT.AE.AESTDY" Value="68"/>
      <ItemData ItemOID="IT.AE.AEENRTPT" Value="ONGOING"/>
      <ItemData ItemOID="IT.AE.AEENTPT" Value="2013-08-06"/>
    </ItemGroupData>
    <ItemGroupData ItemGroupOID="IG.AE" data:ItemGroupDataSeq="35">
      <ItemData ItemOID="IT.AE.STUDYID" Value="CDISCPILOT01"/>
      <ItemData ItemOID="IT.AE.DOMAIN" Value="AE"/>
      <ItemData ItemOID="IT.AE.USUBJID" Value="CDISC005"/>
      <ItemData ItemOID="IT.AE.AESEQ" Value="5"/>
      <ItemData ItemOID="IT.AE.AELNKID" Value="7"/>
      <ItemData ItemOID="IT.AE.AETERM" Value="CHEST DISCOMFORT"/>
      <ItemData ItemOID="IT.AE.AESEV" Value="MILD"/>
      <ItemData ItemOID="IT.AE.AESER" Value="N"/>
      <ItemData ItemOID="IT.AE.AEACN" Value="DOSE NOT CHANGED"/>
      <ItemData ItemOID="IT.AE.AEREL" Value="NOT RELATED"/>
      <ItemData ItemOID="IT.AE.AEOUT" Value="RECOVERED/RESOLVED"/>
      <ItemData ItemOID="IT.AE.AESCAN" Value="N"/>
      <ItemData ItemOID="IT.AE.AESCONG" Value="N"/>
      <ItemData ItemOID="IT.AE.AESDISAB" Value="N"/>
      <ItemData ItemOID="IT.AE.AESDTH" Value="N"/>
      <ItemData ItemOID="IT.AE.AESHOSP" Value="N"/>
      <ItemData ItemOID="IT.AE.AESLIFE" Value="N"/>
      <ItemData ItemOID="IT.AE.AESOD" Value="N"/>
      <ItemData ItemOID="IT.AE.EPOCH" Value="TREATMENT"/>
      <ItemData ItemOID="IT.AE.AESTDTC" Value="2013-06-24"/>
      <ItemData ItemOID="IT.AE.AEENDTC" Value="2013-06-24"/>
      <ItemData ItemOID="IT.AE.AESTDY" Value="141"/>
      <ItemData ItemOID="IT.AE.AEENDY" Value="141"/>
    </ItemGroupData>
    <ItemGroupData ItemGroupOID="IG.AE" data:ItemGroupDataSeq="36">
      <ItemData ItemOID="IT.AE.STUDYID" Value="CDISCPILOT01"/>
      <ItemData ItemOID="IT.AE.DOMAIN" Value="AE"/>
      <ItemData ItemOID="IT.AE.USUBJID" Value="CDISC005"/>
      <ItemData ItemOID="IT.AE.AESEQ" Value="6"/>
      <ItemData ItemOID="IT.AE.AELNKID" Value="8"/>
      <ItemData ItemOID="IT.AE.AETERM" Value="HEADACHE"/>
      <ItemData ItemOID="IT.AE.AESEV" Value="MILD"/>
      <ItemData ItemOID="IT.AE.AESER" Value="N"/>
      <ItemData ItemOID="IT.AE.AEACN" Value="DOSE NOT CHANGED"/>
      <ItemData ItemOID="IT.AE.AEREL" Value="NOT RELATED"/>
      <ItemData ItemOID="IT.AE.AEOUT" Value="RECOVERED/RESOLVED"/>
      <ItemData ItemOID="IT.AE.AESCAN" Value="N"/>
      <ItemData ItemOID="IT.AE.AESCONG" Value="N"/>
      <ItemData ItemOID="IT.AE.AESDISAB" Value="N"/>
      <ItemData ItemOID="IT.AE.AESDTH" Value="N"/>
      <ItemData ItemOID="IT.AE.AESHOSP" Value="N"/>
      <ItemData ItemOID="IT.AE.AESLIFE" Value="N"/>
      <ItemData ItemOID="IT.AE.AESOD" Value="N"/>
      <ItemData ItemOID="IT.AE.EPOCH" Value="TREATMENT"/>
      <ItemData ItemOID="IT.AE.AESTDTC" Value="2013-06-24"/>
      <ItemData ItemOID="IT.AE.AEENDTC" Value="2013-06-24"/>
      <ItemData ItemOID="IT.AE.AESTDY" Value="141"/>
      <ItemData ItemOID="IT.AE.AEENDY" Value="141"/>
    </ItemGroupData>
    <ItemGroupData ItemGroupOID="IG.AE" data:ItemGroupDataSeq="37">
      <ItemData ItemOID="IT.AE.STUDYID" Value="CDISCPILOT01"/>
      <ItemData ItemOID="IT.AE.DOMAIN" Value="AE"/>
      <ItemData ItemOID="IT.AE.USUBJID" Value="CDISC005"/>
      <ItemData ItemOID="IT.AE.AESEQ" Value="7"/>
      <ItemData ItemOID="IT.AE.AELNKID" Value="9"/>
      <ItemData ItemOID="IT.AE.AETERM" Value="COUGH"/>
      <ItemData ItemOID="IT.AE.AESEV" Value="MODERATE"/>
      <ItemData ItemOID="IT.AE.AESER" Value="N"/>
      <ItemData ItemOID="IT.AE.AEACN" Value="DOSE NOT CHANGED"/>
      <ItemData ItemOID="IT.AE.AEREL" Value="NOT RELATED"/>
      <ItemData ItemOID="IT.AE.AEOUT" Value="RECOVERED/RESOLVED"/>
      <ItemData ItemOID="IT.AE.AESCAN" Value="N"/>
      <ItemData ItemOID="IT.AE.AESCONG" Value="N"/>
      <ItemData ItemOID="IT.AE.AESDISAB" Value="N"/>
      <ItemData ItemOID="IT.AE.AESDTH" Value="N"/>
      <ItemData ItemOID="IT.AE.AESHOSP" Value="N"/>
      <ItemData ItemOID="IT.AE.AESLIFE" Value="N"/>
      <ItemData ItemOID="IT.AE.AESOD" Value="N"/>
      <ItemData ItemOID="IT.AE.EPOCH" Value="TREATMENT"/>
      <ItemData ItemOID="IT.AE.AESTDTC" Value="2013-07-17"/>
      <ItemData ItemOID="IT.AE.AEENDTC" Value="2013-07-26"/>
      <ItemData ItemOID="IT.AE.AESTDY" Value="164"/>
      <ItemData ItemOID="IT.AE.AEENDY" Value="173"/>
    </ItemGroupData>
    <ItemGroupData ItemGroupOID="IG.AE" data:ItemGroupDataSeq="38">
      <ItemData ItemOID="IT.AE.STUDYID" Value="CDISCPILOT01"/>
      <ItemData ItemOID="IT.AE.DOMAIN" Value="AE"/>
      <ItemData ItemOID="IT.AE.USUBJID" Value="CDISC007"/>
      <ItemData ItemOID="IT.AE.AESEQ" Value="1"/>
      <ItemData ItemOID="IT.AE.AELNKID" Value="1"/>
      <ItemData ItemOID="IT.AE.AETERM" Value="INJECTION SITE REACTION"/>
      <ItemData ItemOID="IT.AE.AESEV" Value="MODERATE"/>
      <ItemData ItemOID="IT.AE.AESER" Value="N"/>
      <ItemData ItemOID="IT.AE.AEACN" Value="DRUG WITHDRAWN"/>
      <ItemData ItemOID="IT.AE.AEREL" Value="POSSIBLY RELATED"/>
      <ItemData ItemOID="IT.AE.AEOUT" Value="NOT RECOVERED/NOT RESOLVED"/>
      <ItemData ItemOID="IT.AE.AESCAN" Value="N"/>
      <ItemData ItemOID="IT.AE.AESCONG" Value="N"/>
      <ItemData ItemOID="IT.AE.AESDISAB" Value="N"/>
      <ItemData ItemOID="IT.AE.AESDTH" Value="N"/>
      <ItemData ItemOID="IT.AE.AESHOSP" Value="N"/>
      <ItemData ItemOID="IT.AE.AESLIFE" Value="N"/>
      <ItemData ItemOID="IT.AE.AESOD" Value="N"/>
      <ItemData ItemOID="IT.AE.EPOCH" Value="TREATMENT"/>
      <ItemData ItemOID="IT.AE.AESTDTC" Value="2013-01-19"/>
      <ItemData ItemOID="IT.AE.AESTDY" Value="15"/>
      <ItemData ItemOID="IT.AE.AEENRTPT" Value="ONGOING"/>
      <ItemData ItemOID="IT.AE.AEENTPT" Value="2013-06-20"/>
    </ItemGroupData>
    <ItemGroupData ItemGroupOID="IG.AE" data:ItemGroupDataSeq="39">
      <ItemData ItemOID="IT.AE.STUDYID" Value="CDISCPILOT01"/>
      <ItemData ItemOID="IT.AE.DOMAIN" Value="AE"/>
      <ItemData ItemOID="IT.AE.USUBJID" Value="CDISC007"/>
      <ItemData ItemOID="IT.AE.AESEQ" Value="2"/>
      <ItemData ItemOID="IT.AE.AELNKID" Value="5"/>
      <ItemData ItemOID="IT.AE.AETERM" Value="SALIVARY HYPERSECRETION"/>
      <ItemData ItemOID="IT.AE.AESEV" Value="MILD"/>
      <ItemData ItemOID="IT.AE.AESER" Value="N"/>
      <ItemData ItemOID="IT.AE.AEACN" Value="DOSE NOT CHANGED"/>
      <ItemData ItemOID="IT.AE.AEREL" Value="POSSIBLY RELATED"/>
      <ItemData ItemOID="IT.AE.AEOUT" Value="NOT RECOVERED/NOT RESOLVED"/>
      <ItemData ItemOID="IT.AE.AESCAN" Value="N"/>
      <ItemData ItemOID="IT.AE.AESCONG" Value="N"/>
      <ItemData ItemOID="IT.AE.AESDISAB" Value="N"/>
      <ItemData ItemOID="IT.AE.AESDTH" Value="N"/>
      <ItemData ItemOID="IT.AE.AESHOSP" Value="N"/>
      <ItemData ItemOID="IT.AE.AESLIFE" Value="N"/>
      <ItemData ItemOID="IT.AE.AESOD" Value="N"/>
      <ItemData ItemOID="IT.AE.EPOCH" Value="TREATMENT"/>
      <ItemData ItemOID="IT.AE.AESTDTC" Value="2013-01-19"/>
      <ItemData ItemOID="IT.AE.AESTDY" Value="15"/>
      <ItemData ItemOID="IT.AE.AEENRTPT" Value="ONGOING"/>
      <ItemData ItemOID="IT.AE.AEENTPT" Value="2013-06-20"/>
    </ItemGroupData>
    <ItemGroupData ItemGroupOID="IG.AE" data:ItemGroupDataSeq="40">
      <ItemData ItemOID="IT.AE.STUDYID" Value="CDISCPILOT01"/>
      <ItemData ItemOID="IT.AE.DOMAIN" Value="AE"/>
      <ItemData ItemOID="IT.AE.USUBJID" Value="CDISC007"/>
      <ItemData ItemOID="IT.AE.AESEQ" Value="3"/>
      <ItemData ItemOID="IT.AE.AELNKID" Value="6"/>
      <ItemData ItemOID="IT.AE.AETERM" Value="PARAESTHESIA"/>
      <ItemData ItemOID="IT.AE.AESEV" Value="MILD"/>
      <ItemData ItemOID="IT.AE.AESER" Value="N"/>
      <ItemData ItemOID="IT.AE.AEACN" Value="DOSE NOT CHANGED"/>
      <ItemData ItemOID="IT.AE.AEREL" Value="NOT RELATED"/>
      <ItemData ItemOID="IT.AE.AEOUT" Value="RECOVERED/RESOLVED"/>
      <ItemData ItemOID="IT.AE.AESCAN" Value="N"/>
      <ItemData ItemOID="IT.AE.AESCONG" Value="N"/>
      <ItemData ItemOID="IT.AE.AESDISAB" Value="N"/>
      <ItemData ItemOID="IT.AE.AESDTH" Value="N"/>
      <ItemData ItemOID="IT.AE.AESHOSP" Value="N"/>
      <ItemData ItemOID="IT.AE.AESLIFE" Value="N"/>
      <ItemData ItemOID="IT.AE.AESOD" Value="N"/>
      <ItemData ItemOID="IT.AE.EPOCH" Value="TREATMENT"/>
      <ItemData ItemOID="IT.AE.AESTDTC" Value="2013-02-08"/>
      <ItemData ItemOID="IT.AE.AEENDTC" Value="2013-02-08"/>
      <ItemData ItemOID="IT.AE.AESTDY" Value="35"/>
      <ItemData ItemOID="IT.AE.AEENDY" Value="35"/>
    </ItemGroupData>
    <ItemGroupData ItemGroupOID="IG.AE" data:ItemGroupDataSeq="41">
      <ItemData ItemOID="IT.AE.STUDYID" Value="CDISCPILOT01"/>
      <ItemData ItemOID="IT.AE.DOMAIN" Value="AE"/>
      <ItemData ItemOID="IT.AE.USUBJID" Value="CDISC008"/>
      <ItemData ItemOID="IT.AE.AESEQ" Value="1"/>
      <ItemData ItemOID="IT.AE.AELNKID" Value="1"/>
      <ItemData ItemOID="IT.AE.AETERM" Value="COMPLETED SUICIDE"/>
      <ItemData ItemOID="IT.AE.AESEV" Value="SEVERE"/>
      <ItemData ItemOID="IT.AE.AESER" Value="Y"/>
      <ItemData ItemOID="IT.AE.AEACN" Value="DRUG WITHDRAWN"/>
      <ItemData ItemOID="IT.AE.AEREL" Value="NOT RELATED"/>
      <ItemData ItemOID="IT.AE.AEOUT" Value="FATAL"/>
      <ItemData ItemOID="IT.AE.AESCAN" Value="N"/>
      <ItemData ItemOID="IT.AE.AESCONG" Value="N"/>
      <ItemData ItemOID="IT.AE.AESDISAB" Value="N"/>
      <ItemData ItemOID="IT.AE.AESDTH" Value="Y"/>
      <ItemData ItemOID="IT.AE.AESHOSP" Value="N"/>
      <ItemData ItemOID="IT.AE.AESLIFE" Value="N"/>
      <ItemData ItemOID="IT.AE.AESOD" Value="N"/>
      <ItemData ItemOID="IT.AE.EPOCH" Value="TREATMENT"/>
      <ItemData ItemOID="IT.AE.AESTDTC" Value="2014-10-31"/>
      <ItemData ItemOID="IT.AE.AEENDTC" Value="2014-10-31"/>
      <ItemData ItemOID="IT.AE.AESTDY" Value="174"/>
      <ItemData ItemOID="IT.AE.AEENDY" Value="174"/>
    </ItemGroupData>
    <ItemGroupData ItemGroupOID="IG.AE" data:ItemGroupDataSeq="42">
      <ItemData ItemOID="IT.AE.STUDYID" Value="CDISCPILOT01"/>
      <ItemData ItemOID="IT.AE.DOMAIN" Value="AE"/>
      <ItemData ItemOID="IT.AE.USUBJID" Value="CDISC009"/>
      <ItemData ItemOID="IT.AE.AESEQ" Value="1"/>
      <ItemData ItemOID="IT.AE.AELNKID" Value="1"/>
      <ItemData ItemOID="IT.AE.AETERM" Value="HEART RATE IRREGULAR"/>
      <ItemData ItemOID="IT.AE.AESEV" Value="MILD"/>
      <ItemData ItemOID="IT.AE.AESER" Value="N"/>
      <ItemData ItemOID="IT.AE.AEACN" Value="DOSE NOT CHANGED"/>
      <ItemData ItemOID="IT.AE.AEREL" Value="POSSIBLY RELATED"/>
      <ItemData ItemOID="IT.AE.AEOUT" Value="RECOVERED/RESOLVED"/>
      <ItemData ItemOID="IT.AE.AESCAN" Value="N"/>
      <ItemData ItemOID="IT.AE.AESCONG" Value="N"/>
      <ItemData ItemOID="IT.AE.AESDISAB" Value="N"/>
      <ItemData ItemOID="IT.AE.AESDTH" Value="N"/>
      <ItemData ItemOID="IT.AE.AESHOSP" Value="N"/>
      <ItemData ItemOID="IT.AE.AESLIFE" Value="N"/>
      <ItemData ItemOID="IT.AE.AESOD" Value="N"/>
      <ItemData ItemOID="IT.AE.EPOCH" Value="TREATMENT"/>
      <ItemData ItemOID="IT.AE.AESTDTC" Value="2013-01-19"/>
      <ItemData ItemOID="IT.AE.AEENDTC" Value="2013-01-19"/>
      <ItemData ItemOID="IT.AE.AESTDY" Value="90"/>
      <ItemData ItemOID="IT.AE.AEENDY" Value="90"/>
    </ItemGroupData>
    <ItemGroupData ItemGroupOID="IG.AE" data:ItemGroupDataSeq="43">
      <ItemData ItemOID="IT.AE.STUDYID" Value="CDISCPILOT01"/>
      <ItemData ItemOID="IT.AE.DOMAIN" Value="AE"/>
      <ItemData ItemOID="IT.AE.USUBJID" Value="CDISC009"/>
      <ItemData ItemOID="IT.AE.AESEQ" Value="2"/>
      <ItemData ItemOID="IT.AE.AELNKID" Value="2"/>
      <ItemData ItemOID="IT.AE.AETERM" Value="DIZZINESS"/>
      <ItemData ItemOID="IT.AE.AESEV" Value="MILD"/>
      <ItemData ItemOID="IT.AE.AESER" Value="N"/>
      <ItemData ItemOID="IT.AE.AEACN" Value="DOSE NOT CHANGED"/>
      <ItemData ItemOID="IT.AE.AEREL" Value="POSSIBLY RELATED"/>
      <ItemData ItemOID="IT.AE.AEOUT" Value="RECOVERED/RESOLVED"/>
      <ItemData ItemOID="IT.AE.AESCAN" Value="N"/>
      <ItemData ItemOID="IT.AE.AESCONG" Value="N"/>
      <ItemData ItemOID="IT.AE.AESDISAB" Value="N"/>
      <ItemData ItemOID="IT.AE.AESDTH" Value="N"/>
      <ItemData ItemOID="IT.AE.AESHOSP" Value="N"/>
      <ItemData ItemOID="IT.AE.AESLIFE" Value="N"/>
      <ItemData ItemOID="IT.AE.AESOD" Value="N"/>
      <ItemData ItemOID="IT.AE.EPOCH" Value="TREATMENT"/>
      <ItemData ItemOID="IT.AE.AESTDTC" Value="2013-02-04"/>
      <ItemData ItemOID="IT.AE.AEENDTC" Value="2013-02-08"/>
      <ItemData ItemOID="IT.AE.AESTDY" Value="106"/>
      <ItemData ItemOID="IT.AE.AEENDY" Value="110"/>
    </ItemGroupData>
    <ItemGroupData ItemGroupOID="IG.AE" data:ItemGroupDataSeq="44">
      <ItemData ItemOID="IT.AE.STUDYID" Value="CDISCPILOT01"/>
      <ItemData ItemOID="IT.AE.DOMAIN" Value="AE"/>
      <ItemData ItemOID="IT.AE.USUBJID" Value="CDISC009"/>
      <ItemData ItemOID="IT.AE.AESEQ" Value="3"/>
      <ItemData ItemOID="IT.AE.AELNKID" Value="3"/>
      <ItemData ItemOID="IT.AE.AETERM" Value="HEADACHE"/>
      <ItemData ItemOID="IT.AE.AESEV" Value="MILD"/>
      <ItemData ItemOID="IT.AE.AESER" Value="N"/>
      <ItemData ItemOID="IT.AE.AEACN" Value="DOSE NOT CHANGED"/>
      <ItemData ItemOID="IT.AE.AEREL" Value="NOT RELATED"/>
      <ItemData ItemOID="IT.AE.AEOUT" Value="NOT RECOVERED/NOT RESOLVED"/>
      <ItemData ItemOID="IT.AE.AESCAN" Value="N"/>
      <ItemData ItemOID="IT.AE.AESCONG" Value="N"/>
      <ItemData ItemOID="IT.AE.AESDISAB" Value="N"/>
      <ItemData ItemOID="IT.AE.AESDTH" Value="N"/>
      <ItemData ItemOID="IT.AE.AESHOSP" Value="N"/>
      <ItemData ItemOID="IT.AE.AESLIFE" Value="N"/>
      <ItemData ItemOID="IT.AE.AESOD" Value="N"/>
      <ItemData ItemOID="IT.AE.EPOCH" Value="TREATMENT"/>
      <ItemData ItemOID="IT.AE.AESTDTC" Value="2013-02-16"/>
      <ItemData ItemOID="IT.AE.AESTDY" Value="118"/>
      <ItemData ItemOID="IT.AE.AEENRTPT" Value="ONGOING"/>
      <ItemData ItemOID="IT.AE.AEENTPT" Value="2013-04-28"/>
    </ItemGroupData>
    <ItemGroupData ItemGroupOID="IG.AE" data:ItemGroupDataSeq="45">
      <ItemData ItemOID="IT.AE.STUDYID" Value="CDISCPILOT01"/>
      <ItemData ItemOID="IT.AE.DOMAIN" Value="AE"/>
      <ItemData ItemOID="IT.AE.USUBJID" Value="CDISC009"/>
      <ItemData ItemOID="IT.AE.AESEQ" Value="4"/>
      <ItemData ItemOID="IT.AE.AELNKID" Value="4"/>
      <ItemData ItemOID="IT.AE.AETERM" Value="HEART RATE IRREGULAR"/>
      <ItemData ItemOID="IT.AE.AESEV" Value="MILD"/>
      <ItemData ItemOID="IT.AE.AESER" Value="N"/>
      <ItemData ItemOID="IT.AE.AEACN" Value="DOSE NOT CHANGED"/>
      <ItemData ItemOID="IT.AE.AEREL" Value="POSSIBLY RELATED"/>
      <ItemData ItemOID="IT.AE.AEOUT" Value="RECOVERED/RESOLVED"/>
      <ItemData ItemOID="IT.AE.AESCAN" Value="N"/>
      <ItemData ItemOID="IT.AE.AESCONG" Value="N"/>
      <ItemData ItemOID="IT.AE.AESDISAB" Value="N"/>
      <ItemData ItemOID="IT.AE.AESDTH" Value="N"/>
      <ItemData ItemOID="IT.AE.AESHOSP" Value="N"/>
      <ItemData ItemOID="IT.AE.AESLIFE" Value="N"/>
      <ItemData ItemOID="IT.AE.AESOD" Value="N"/>
      <ItemData ItemOID="IT.AE.EPOCH" Value="TREATMENT"/>
      <ItemData ItemOID="IT.AE.AESTDTC" Value="2013-03-16"/>
      <ItemData ItemOID="IT.AE.AEENDTC" Value="2013-03-16"/>
      <ItemData ItemOID="IT.AE.AESTDY" Value="146"/>
      <ItemData ItemOID="IT.AE.AEENDY" Value="146"/>
    </ItemGroupData>
    <ItemGroupData ItemGroupOID="IG.AE" data:ItemGroupDataSeq="46">
      <ItemData ItemOID="IT.AE.STUDYID" Value="CDISCPILOT01"/>
      <ItemData ItemOID="IT.AE.DOMAIN" Value="AE"/>
      <ItemData ItemOID="IT.AE.USUBJID" Value="CDISC011"/>
      <ItemData ItemOID="IT.AE.AESEQ" Value="1"/>
      <ItemData ItemOID="IT.AE.AELNKID" Value="1"/>
      <ItemData ItemOID="IT.AE.AETERM" Value="DIZZINESS"/>
      <ItemData ItemOID="IT.AE.AESEV" Value="MILD"/>
      <ItemData ItemOID="IT.AE.AESER" Value="N"/>
      <ItemData ItemOID="IT.AE.AEACN" Value="DOSE NOT CHANGED"/>
      <ItemData ItemOID="IT.AE.AEREL" Value="POSSIBLY RELATED"/>
      <ItemData ItemOID="IT.AE.AEOUT" Value="RECOVERED/RESOLVED"/>
      <ItemData ItemOID="IT.AE.AESCAN" Value="N"/>
      <ItemData ItemOID="IT.AE.AESCONG" Value="N"/>
      <ItemData ItemOID="IT.AE.AESDISAB" Value="N"/>
      <ItemData ItemOID="IT.AE.AESDTH" Value="N"/>
      <ItemData ItemOID="IT.AE.AESHOSP" Value="N"/>
      <ItemData ItemOID="IT.AE.AESLIFE" Value="N"/>
      <ItemData ItemOID="IT.AE.AESOD" Value="N"/>
      <ItemData ItemOID="IT.AE.EPOCH" Value="TREATMENT"/>
      <ItemData ItemOID="IT.AE.AESTDTC" Value="2012-12-18"/>
      <ItemData ItemOID="IT.AE.AEENDTC" Value="2012-12-18"/>
      <ItemData ItemOID="IT.AE.AESTDY" Value="12"/>
      <ItemData ItemOID="IT.AE.AEENDY" Value="12"/>
    </ItemGroupData>
    <ItemGroupData ItemGroupOID="IG.AE" data:ItemGroupDataSeq="47">
      <ItemData ItemOID="IT.AE.STUDYID" Value="CDISCPILOT01"/>
      <ItemData ItemOID="IT.AE.DOMAIN" Value="AE"/>
      <ItemData ItemOID="IT.AE.USUBJID" Value="CDISC011"/>
      <ItemData ItemOID="IT.AE.AESEQ" Value="2"/>
      <ItemData ItemOID="IT.AE.AELNKID" Value="2"/>
      <ItemData ItemOID="IT.AE.AETERM" Value="INJECTION SITE REACTION"/>
      <ItemData ItemOID="IT.AE.AESEV" Value="MILD"/>
      <ItemData ItemOID="IT.AE.AESER" Value="N"/>
      <ItemData ItemOID="IT.AE.AEACN" Value="DOSE NOT CHANGED"/>
      <ItemData ItemOID="IT.AE.AEREL" Value="RELATED"/>
      <ItemData ItemOID="IT.AE.AEOUT" Value="RECOVERED/RESOLVED"/>
      <ItemData ItemOID="IT.AE.AESCAN" Value="N"/>
      <ItemData ItemOID="IT.AE.AESCONG" Value="N"/>
      <ItemData ItemOID="IT.AE.AESDISAB" Value="N"/>
      <ItemData ItemOID="IT.AE.AESDTH" Value="N"/>
      <ItemData ItemOID="IT.AE.AESHOSP" Value="N"/>
      <ItemData ItemOID="IT.AE.AESLIFE" Value="N"/>
      <ItemData ItemOID="IT.AE.AESOD" Value="N"/>
      <ItemData ItemOID="IT.AE.EPOCH" Value="TREATMENT"/>
      <ItemData ItemOID="IT.AE.AESTDTC" Value="2013-01-12"/>
      <ItemData ItemOID="IT.AE.AEENDTC" Value="2013-01-12"/>
      <ItemData ItemOID="IT.AE.AESTDY" Value="37"/>
      <ItemData ItemOID="IT.AE.AEENDY" Value="37"/>
    </ItemGroupData>
    <ItemGroupData ItemGroupOID="IG.AE" data:ItemGroupDataSeq="48">
      <ItemData ItemOID="IT.AE.STUDYID" Value="CDISCPILOT01"/>
      <ItemData ItemOID="IT.AE.DOMAIN" Value="AE"/>
      <ItemData ItemOID="IT.AE.USUBJID" Value="CDISC011"/>
      <ItemData ItemOID="IT.AE.AESEQ" Value="3"/>
      <ItemData ItemOID="IT.AE.AELNKID" Value="3"/>
      <ItemData ItemOID="IT.AE.AETERM" Value="DIZZINESS"/>
      <ItemData ItemOID="IT.AE.AESEV" Value="MILD"/>
      <ItemData ItemOID="IT.AE.AESER" Value="N"/>
      <ItemData ItemOID="IT.AE.AEACN" Value="DOSE NOT CHANGED"/>
      <ItemData ItemOID="IT.AE.AEREL" Value="POSSIBLY RELATED"/>
      <ItemData ItemOID="IT.AE.AEOUT" Value="RECOVERED/RESOLVED"/>
      <ItemData ItemOID="IT.AE.AESCAN" Value="N"/>
      <ItemData ItemOID="IT.AE.AESCONG" Value="N"/>
      <ItemData ItemOID="IT.AE.AESDISAB" Value="N"/>
      <ItemData ItemOID="IT.AE.AESDTH" Value="N"/>
      <ItemData ItemOID="IT.AE.AESHOSP" Value="N"/>
      <ItemData ItemOID="IT.AE.AESLIFE" Value="N"/>
      <ItemData ItemOID="IT.AE.AESOD" Value="N"/>
      <ItemData ItemOID="IT.AE.EPOCH" Value="TREATMENT"/>
      <ItemData ItemOID="IT.AE.AESTDTC" Value="2013-02-02"/>
      <ItemData ItemOID="IT.AE.AEENDTC" Value="2013-02-02"/>
      <ItemData ItemOID="IT.AE.AESTDY" Value="58"/>
      <ItemData ItemOID="IT.AE.AEENDY" Value="58"/>
    </ItemGroupData>
    <ItemGroupData ItemGroupOID="IG.AE" data:ItemGroupDataSeq="49">
      <ItemData ItemOID="IT.AE.STUDYID" Value="CDISCPILOT01"/>
      <ItemData ItemOID="IT.AE.DOMAIN" Value="AE"/>
      <ItemData ItemOID="IT.AE.USUBJID" Value="CDISC011"/>
      <ItemData ItemOID="IT.AE.AESEQ" Value="4"/>
      <ItemData ItemOID="IT.AE.AELNKID" Value="4"/>
      <ItemData ItemOID="IT.AE.AETERM" Value="INJECTION SITE REACTION"/>
      <ItemData ItemOID="IT.AE.AESEV" Value="MILD"/>
      <ItemData ItemOID="IT.AE.AESER" Value="N"/>
      <ItemData ItemOID="IT.AE.AEACN" Value="DOSE NOT CHANGED"/>
      <ItemData ItemOID="IT.AE.AEREL" Value="RELATED"/>
      <ItemData ItemOID="IT.AE.AEOUT" Value="RECOVERED/RESOLVED"/>
      <ItemData ItemOID="IT.AE.AESCAN" Value="N"/>
      <ItemData ItemOID="IT.AE.AESCONG" Value="N"/>
      <ItemData ItemOID="IT.AE.AESDISAB" Value="N"/>
      <ItemData ItemOID="IT.AE.AESDTH" Value="N"/>
      <ItemData ItemOID="IT.AE.AESHOSP" Value="N"/>
      <ItemData ItemOID="IT.AE.AESLIFE" Value="N"/>
      <ItemData ItemOID="IT.AE.AESOD" Value="N"/>
      <ItemData ItemOID="IT.AE.EPOCH" Value="TREATMENT"/>
      <ItemData ItemOID="IT.AE.AESTDTC" Value="2013-04-10"/>
      <ItemData ItemOID="IT.AE.AEENDTC" Value="2013-06-05"/>
      <ItemData ItemOID="IT.AE.AESTDY" Value="125"/>
      <ItemData ItemOID="IT.AE.AEENDY" Value="181"/>
    </ItemGroupData>
    <ItemGroupData ItemGroupOID="IG.AE" data:ItemGroupDataSeq="50">
      <ItemData ItemOID="IT.AE.STUDYID" Value="CDISCPILOT01"/>
      <ItemData ItemOID="IT.AE.DOMAIN" Value="AE"/>
      <ItemData ItemOID="IT.AE.USUBJID" Value="CDISC013"/>
      <ItemData ItemOID="IT.AE.AESEQ" Value="1"/>
      <ItemData ItemOID="IT.AE.AELNKID" Value="1"/>
      <ItemData ItemOID="IT.AE.AETERM" Value="MYOCARDIAL INFARCTION"/>
      <ItemData ItemOID="IT.AE.AESEV" Value="SEVERE"/>
      <ItemData ItemOID="IT.AE.AESER" Value="Y"/>
      <ItemData ItemOID="IT.AE.AEACN" Value="DRUG WITHDRAWN"/>
      <ItemData ItemOID="IT.AE.AEREL" Value="POSSIBLY RELATED"/>
      <ItemData ItemOID="IT.AE.AEOUT" Value="FATAL"/>
      <ItemData ItemOID="IT.AE.AESCAN" Value="N"/>
      <ItemData ItemOID="IT.AE.AESCONG" Value="N"/>
      <ItemData ItemOID="IT.AE.AESDISAB" Value="N"/>
      <ItemData ItemOID="IT.AE.AESDTH" Value="Y"/>
      <ItemData ItemOID="IT.AE.AESHOSP" Value="Y"/>
      <ItemData ItemOID="IT.AE.AESLIFE" Value="Y"/>
      <ItemData ItemOID="IT.AE.AESOD" Value="N"/>
      <ItemData ItemOID="IT.AE.EPOCH" Value="TREATMENT"/>
      <ItemData ItemOID="IT.AE.AESTDTC" Value="2013-08-02"/>
      <ItemData ItemOID="IT.AE.AEENDTC" Value="2013-08-02"/>
      <ItemData ItemOID="IT.AE.AESTDY" Value="12"/>
      <ItemData ItemOID="IT.AE.AEENDY" Value="12"/>
    </ItemGroupData>
    <ItemGroupData ItemGroupOID="IG.AE" data:ItemGroupDataSeq="51">
      <ItemData ItemOID="IT.AE.STUDYID" Value="CDISCPILOT01"/>
      <ItemData ItemOID="IT.AE.DOMAIN" Value="AE"/>
      <ItemData ItemOID="IT.AE.USUBJID" Value="CDISC014"/>
      <ItemData ItemOID="IT.AE.AESEQ" Value="1"/>
      <ItemData ItemOID="IT.AE.AELNKID" Value="1"/>
      <ItemData ItemOID="IT.AE.AETERM" Value="INJECTION SITE REACTION"/>
      <ItemData ItemOID="IT.AE.AESEV" Value="MODERATE"/>
      <ItemData ItemOID="IT.AE.AESER" Value="N"/>
      <ItemData ItemOID="IT.AE.AEACN" Value="DOSE NOT CHANGED"/>
      <ItemData ItemOID="IT.AE.AEREL" Value="RELATED"/>
      <ItemData ItemOID="IT.AE.AEOUT" Value="RECOVERED/RESOLVED"/>
      <ItemData ItemOID="IT.AE.AESCAN" Value="N"/>
      <ItemData ItemOID="IT.AE.AESCONG" Value="N"/>
      <ItemData ItemOID="IT.AE.AESDISAB" Value="N"/>
      <ItemData ItemOID="IT.AE.AESDTH" Value="N"/>
      <ItemData ItemOID="IT.AE.AESHOSP" Value="N"/>
      <ItemData ItemOID="IT.AE.AESLIFE" Value="N"/>
      <ItemData ItemOID="IT.AE.AESOD" Value="N"/>
      <ItemData ItemOID="IT.AE.EPOCH" Value="TREATMENT"/>
      <ItemData ItemOID="IT.AE.AESTDTC" Value="2013-04-16"/>
      <ItemData ItemOID="IT.AE.AEENDTC" Value="2013-05-02"/>
      <ItemData ItemOID="IT.AE.AESTDY" Value="14"/>
      <ItemData ItemOID="IT.AE.AEENDY" Value="30"/>
    </ItemGroupData>
    <ItemGroupData ItemGroupOID="IG.AE" data:ItemGroupDataSeq="52">
      <ItemData ItemOID="IT.AE.STUDYID" Value="CDISCPILOT01"/>
      <ItemData ItemOID="IT.AE.DOMAIN" Value="AE"/>
      <ItemData ItemOID="IT.AE.USUBJID" Value="CDISC014"/>
      <ItemData ItemOID="IT.AE.AESEQ" Value="2"/>
      <ItemData ItemOID="IT.AE.AELNKID" Value="2"/>
      <ItemData ItemOID="IT.AE.AETERM" Value="NASOPHARYNGITIS"/>
      <ItemData ItemOID="IT.AE.AESEV" Value="MODERATE"/>
      <ItemData ItemOID="IT.AE.AESER" Value="N"/>
      <ItemData ItemOID="IT.AE.AEACN" Value="DRUG WITHDRAWN"/>
      <ItemData ItemOID="IT.AE.AEREL" Value="NOT RELATED"/>
      <ItemData ItemOID="IT.AE.AEOUT" Value="NOT RECOVERED/NOT RESOLVED"/>
      <ItemData ItemOID="IT.AE.AESCAN" Value="N"/>
      <ItemData ItemOID="IT.AE.AESCONG" Value="N"/>
      <ItemData ItemOID="IT.AE.AESDISAB" Value="N"/>
      <ItemData ItemOID="IT.AE.AESDTH" Value="N"/>
      <ItemData ItemOID="IT.AE.AESHOSP" Value="N"/>
      <ItemData ItemOID="IT.AE.AESLIFE" Value="N"/>
      <ItemData ItemOID="IT.AE.AESOD" Value="N"/>
      <ItemData ItemOID="IT.AE.EPOCH" Value="TREATMENT"/>
      <ItemData ItemOID="IT.AE.AESTDTC" Value="2013-04-27"/>
      <ItemData ItemOID="IT.AE.AESTDY" Value="25"/>
      <ItemData ItemOID="IT.AE.AEENRTPT" Value="ONGOING"/>
      <ItemData ItemOID="IT.AE.AEENTPT" Value="2013-09-18"/>
    </ItemGroupData>
    <ItemGroupData ItemGroupOID="IG.AE" data:ItemGroupDataSeq="53">
      <ItemData ItemOID="IT.AE.STUDYID" Value="CDISCPILOT01"/>
      <ItemData ItemOID="IT.AE.DOMAIN" Value="AE"/>
      <ItemData ItemOID="IT.AE.USUBJID" Value="CDISC016"/>
      <ItemData ItemOID="IT.AE.AESEQ" Value="1"/>
      <ItemData ItemOID="IT.AE.AELNKID" Value="1"/>
      <ItemData ItemOID="IT.AE.AETERM" Value="PARAESTHESIA ORAL"/>
      <ItemData ItemOID="IT.AE.AESEV" Value="MILD"/>
      <ItemData ItemOID="IT.AE.AESER" Value="N"/>
      <ItemData ItemOID="IT.AE.AEACN" Value="DOSE NOT CHANGED"/>
      <ItemData ItemOID="IT.AE.AEREL" Value="POSSIBLY RELATED"/>
      <ItemData ItemOID="IT.AE.AEOUT" Value="NOT RECOVERED/NOT RESOLVED"/>
      <ItemData ItemOID="IT.AE.AESCAN" Value="N"/>
      <ItemData ItemOID="IT.AE.AESCONG" Value="N"/>
      <ItemData ItemOID="IT.AE.AESDISAB" Value="N"/>
      <ItemData ItemOID="IT.AE.AESDTH" Value="N"/>
      <ItemData ItemOID="IT.AE.AESHOSP" Value="N"/>
      <ItemData ItemOID="IT.AE.AESLIFE" Value="N"/>
      <ItemData ItemOID="IT.AE.AESOD" Value="N"/>
      <ItemData ItemOID="IT.AE.EPOCH" Value="TREATMENT"/>
      <ItemData ItemOID="IT.AE.AESTDTC" Value="2013-04-11"/>
      <ItemData ItemOID="IT.AE.AESTDY" Value="9"/>
      <ItemData ItemOID="IT.AE.AEENRTPT" Value="ONGOING"/>
      <ItemData ItemOID="IT.AE.AEENTPT" Value="2013-09-22"/>
    </ItemGroupData>
    <ItemGroupData ItemGroupOID="IG.AE" data:ItemGroupDataSeq="54">
      <ItemData ItemOID="IT.AE.STUDYID" Value="CDISCPILOT01"/>
      <ItemData ItemOID="IT.AE.DOMAIN" Value="AE"/>
      <ItemData ItemOID="IT.AE.USUBJID" Value="CDISC016"/>
      <ItemData ItemOID="IT.AE.AESEQ" Value="2"/>
      <ItemData ItemOID="IT.AE.AELNKID" Value="2"/>
      <ItemData ItemOID="IT.AE.AETERM" Value="NASOPHARYNGITIS"/>
      <ItemData ItemOID="IT.AE.AESEV" Value="SEVERE"/>
      <ItemData ItemOID="IT.AE.AESER" Value="N"/>
      <ItemData ItemOID="IT.AE.AEACN" Value="DOSE NOT CHANGED"/>
      <ItemData ItemOID="IT.AE.AEREL" Value="NOT RELATED"/>
      <ItemData ItemOID="IT.AE.AEOUT" Value="RECOVERED/RESOLVED"/>
      <ItemData ItemOID="IT.AE.AESCAN" Value="N"/>
      <ItemData ItemOID="IT.AE.AESCONG" Value="N"/>
      <ItemData ItemOID="IT.AE.AESDISAB" Value="N"/>
      <ItemData ItemOID="IT.AE.AESDTH" Value="N"/>
      <ItemData ItemOID="IT.AE.AESHOSP" Value="N"/>
      <ItemData ItemOID="IT.AE.AESLIFE" Value="N"/>
      <ItemData ItemOID="IT.AE.AESOD" Value="N"/>
      <ItemData ItemOID="IT.AE.EPOCH" Value="TREATMENT"/>
      <ItemData ItemOID="IT.AE.AESTDTC" Value="2013-04-28"/>
      <ItemData ItemOID="IT.AE.AEENDTC" Value="2013-05-11"/>
      <ItemData ItemOID="IT.AE.AESTDY" Value="26"/>
      <ItemData ItemOID="IT.AE.AEENDY" Value="39"/>
    </ItemGroupData>
    <ItemGroupData ItemGroupOID="IG.AE" data:ItemGroupDataSeq="55">
      <ItemData ItemOID="IT.AE.STUDYID" Value="CDISCPILOT01"/>
      <ItemData ItemOID="IT.AE.DOMAIN" Value="AE"/>
      <ItemData ItemOID="IT.AE.USUBJID" Value="CDISC016"/>
      <ItemData ItemOID="IT.AE.AESEQ" Value="3"/>
      <ItemData ItemOID="IT.AE.AELNKID" Value="3"/>
      <ItemData ItemOID="IT.AE.AETERM" Value="SUPRAVENTRICULAR EXTRASYSTOLES"/>
      <ItemData ItemOID="IT.AE.AESEV" Value="MILD"/>
      <ItemData ItemOID="IT.AE.AESER" Value="N"/>
      <ItemData ItemOID="IT.AE.AEACN" Value="DOSE NOT CHANGED"/>
      <ItemData ItemOID="IT.AE.AEREL" Value="POSSIBLY RELATED"/>
      <ItemData ItemOID="IT.AE.AEOUT" Value="RECOVERED/RESOLVED"/>
      <ItemData ItemOID="IT.AE.AESCAN" Value="N"/>
      <ItemData ItemOID="IT.AE.AESCONG" Value="N"/>
      <ItemData ItemOID="IT.AE.AESDISAB" Value="N"/>
      <ItemData ItemOID="IT.AE.AESDTH" Value="N"/>
      <ItemData ItemOID="IT.AE.AESHOSP" Value="N"/>
      <ItemData ItemOID="IT.AE.AESLIFE" Value="N"/>
      <ItemData ItemOID="IT.AE.AESOD" Value="N"/>
      <ItemData ItemOID="IT.AE.EPOCH" Value="TREATMENT"/>
      <ItemData ItemOID="IT.AE.AESTDTC" Value="2013-04-29"/>
      <ItemData ItemOID="IT.AE.AEENDTC" Value="2013-05-15"/>
      <ItemData ItemOID="IT.AE.AESTDY" Value="27"/>
      <ItemData ItemOID="IT.AE.AEENDY" Value="43"/>
    </ItemGroupData>
    <ItemGroupData ItemGroupOID="IG.AE" data:ItemGroupDataSeq="56">
      <ItemData ItemOID="IT.AE.STUDYID" Value="CDISCPILOT01"/>
      <ItemData ItemOID="IT.AE.DOMAIN" Value="AE"/>
      <ItemData ItemOID="IT.AE.USUBJID" Value="CDISC016"/>
      <ItemData ItemOID="IT.AE.AESEQ" Value="4"/>
      <ItemData ItemOID="IT.AE.AELNKID" Value="4"/>
      <ItemData ItemOID="IT.AE.AETERM" Value="RASH PRURITIC"/>
      <ItemData ItemOID="IT.AE.AESEV" Value="MODERATE"/>
      <ItemData ItemOID="IT.AE.AESER" Value="N"/>
      <ItemData ItemOID="IT.AE.AEACN" Value="DOSE NOT CHANGED"/>
      <ItemData ItemOID="IT.AE.AEREL" Value="RELATED"/>
      <ItemData ItemOID="IT.AE.AEOUT" Value="RECOVERED/RESOLVED"/>
      <ItemData ItemOID="IT.AE.AESCAN" Value="N"/>
      <ItemData ItemOID="IT.AE.AESCONG" Value="N"/>
      <ItemData ItemOID="IT.AE.AESDISAB" Value="N"/>
      <ItemData ItemOID="IT.AE.AESDTH" Value="N"/>
      <ItemData ItemOID="IT.AE.AESHOSP" Value="N"/>
      <ItemData ItemOID="IT.AE.AESLIFE" Value="N"/>
      <ItemData ItemOID="IT.AE.AESOD" Value="N"/>
      <ItemData ItemOID="IT.AE.EPOCH" Value="TREATMENT"/>
      <ItemData ItemOID="IT.AE.AESTDTC" Value="2013-05-27"/>
      <ItemData ItemOID="IT.AE.AEENDTC" Value="2013-05-31"/>
      <ItemData ItemOID="IT.AE.AESTDY" Value="55"/>
      <ItemData ItemOID="IT.AE.AEENDY" Value="59"/>
    </ItemGroupData>
    <ItemGroupData ItemGroupOID="IG.AE" data:ItemGroupDataSeq="57">
      <ItemData ItemOID="IT.AE.STUDYID" Value="CDISCPILOT01"/>
      <ItemData ItemOID="IT.AE.DOMAIN" Value="AE"/>
      <ItemData ItemOID="IT.AE.USUBJID" Value="CDISC016"/>
      <ItemData ItemOID="IT.AE.AESEQ" Value="5"/>
      <ItemData ItemOID="IT.AE.AELNKID" Value="5"/>
      <ItemData ItemOID="IT.AE.AETERM" Value="VENTRICULAR EXTRASYSTOLES"/>
      <ItemData ItemOID="IT.AE.AESEV" Value="MODERATE"/>
      <ItemData ItemOID="IT.AE.AESER" Value="N"/>
      <ItemData ItemOID="IT.AE.AEACN" Value="DOSE NOT CHANGED"/>
      <ItemData ItemOID="IT.AE.AEREL" Value="RELATED"/>
      <ItemData ItemOID="IT.AE.AEOUT" Value="RECOVERED/RESOLVED"/>
      <ItemData ItemOID="IT.AE.AESCAN" Value="N"/>
      <ItemData ItemOID="IT.AE.AESCONG" Value="N"/>
      <ItemData ItemOID="IT.AE.AESDISAB" Value="N"/>
      <ItemData ItemOID="IT.AE.AESDTH" Value="N"/>
      <ItemData ItemOID="IT.AE.AESHOSP" Value="N"/>
      <ItemData ItemOID="IT.AE.AESLIFE" Value="N"/>
      <ItemData ItemOID="IT.AE.AESOD" Value="N"/>
      <ItemData ItemOID="IT.AE.EPOCH" Value="TREATMENT"/>
      <ItemData ItemOID="IT.AE.AESTDTC" Value="2013-05-28"/>
      <ItemData ItemOID="IT.AE.AEENDTC" Value="2013-06-01"/>
      <ItemData ItemOID="IT.AE.AESTDY" Value="56"/>
      <ItemData ItemOID="IT.AE.AEENDY" Value="60"/>
    </ItemGroupData>
    <ItemGroupData ItemGroupOID="IG.AE" data:ItemGroupDataSeq="58">
      <ItemData ItemOID="IT.AE.STUDYID" Value="CDISCPILOT01"/>
      <ItemData ItemOID="IT.AE.DOMAIN" Value="AE"/>
      <ItemData ItemOID="IT.AE.USUBJID" Value="CDISC016"/>
      <ItemData ItemOID="IT.AE.AESEQ" Value="6"/>
      <ItemData ItemOID="IT.AE.AELNKID" Value="6"/>
      <ItemData ItemOID="IT.AE.AETERM" Value="CONJUNCTIVAL HAEMORRHAGE"/>
      <ItemData ItemOID="IT.AE.AESEV" Value="MODERATE"/>
      <ItemData ItemOID="IT.AE.AESER" Value="N"/>
      <ItemData ItemOID="IT.AE.AEACN" Value="DRUG WITHDRAWN"/>
      <ItemData ItemOID="IT.AE.AEREL" Value="UNLIKELY RELATED"/>
      <ItemData ItemOID="IT.AE.AEOUT" Value="NOT RECOVERED/NOT RESOLVED"/>
      <ItemData ItemOID="IT.AE.AESCAN" Value="N"/>
      <ItemData ItemOID="IT.AE.AESCONG" Value="N"/>
      <ItemData ItemOID="IT.AE.AESDISAB" Value="N"/>
      <ItemData ItemOID="IT.AE.AESDTH" Value="N"/>
      <ItemData ItemOID="IT.AE.AESHOSP" Value="N"/>
      <ItemData ItemOID="IT.AE.AESLIFE" Value="N"/>
      <ItemData ItemOID="IT.AE.AESOD" Value="N"/>
      <ItemData ItemOID="IT.AE.EPOCH" Value="TREATMENT"/>
      <ItemData ItemOID="IT.AE.AESTDTC" Value="2013-05-30"/>
      <ItemData ItemOID="IT.AE.AESTDY" Value="58"/>
      <ItemData ItemOID="IT.AE.AEENRTPT" Value="ONGOING"/>
      <ItemData ItemOID="IT.AE.AEENTPT" Value="2013-09-22"/>
    </ItemGroupData>
    <ItemGroupData ItemGroupOID="IG.AE" data:ItemGroupDataSeq="59">
      <ItemData ItemOID="IT.AE.STUDYID" Value="CDISCPILOT01"/>
      <ItemData ItemOID="IT.AE.DOMAIN" Value="AE"/>
      <ItemData ItemOID="IT.AE.USUBJID" Value="CDISC016"/>
      <ItemData ItemOID="IT.AE.AESEQ" Value="7"/>
      <ItemData ItemOID="IT.AE.AELNKID" Value="7"/>
      <ItemData ItemOID="IT.AE.AETERM" Value="CERUMEN IMPACTION"/>
      <ItemData ItemOID="IT.AE.AESEV" Value="MILD"/>
      <ItemData ItemOID="IT.AE.AESER" Value="N"/>
      <ItemData ItemOID="IT.AE.AEACN" Value="DOSE NOT CHANGED"/>
      <ItemData ItemOID="IT.AE.AEREL" Value="NOT RELATED"/>
      <ItemData ItemOID="IT.AE.AEOUT" Value="NOT RECOVERED/NOT RESOLVED"/>
      <ItemData ItemOID="IT.AE.AESCAN" Value="N"/>
      <ItemData ItemOID="IT.AE.AESCONG" Value="N"/>
      <ItemData ItemOID="IT.AE.AESDISAB" Value="N"/>
      <ItemData ItemOID="IT.AE.AESDTH" Value="N"/>
      <ItemData ItemOID="IT.AE.AESHOSP" Value="N"/>
      <ItemData ItemOID="IT.AE.AESLIFE" Value="N"/>
      <ItemData ItemOID="IT.AE.AESOD" Value="N"/>
      <ItemData ItemOID="IT.AE.EPOCH" Value="TREATMENT"/>
      <ItemData ItemOID="IT.AE.AESTDTC" Value="2013-06-01"/>
      <ItemData ItemOID="IT.AE.AESTDY" Value="60"/>
      <ItemData ItemOID="IT.AE.AEENRTPT" Value="ONGOING"/>
      <ItemData ItemOID="IT.AE.AEENTPT" Value="2013-09-22"/>
    </ItemGroupData>
    <ItemGroupData ItemGroupOID="IG.AE" data:ItemGroupDataSeq="60">
      <ItemData ItemOID="IT.AE.STUDYID" Value="CDISCPILOT01"/>
      <ItemData ItemOID="IT.AE.DOMAIN" Value="AE"/>
      <ItemData ItemOID="IT.AE.USUBJID" Value="CDISC017"/>
      <ItemData ItemOID="IT.AE.AESEQ" Value="1"/>
      <ItemData ItemOID="IT.AE.AELNKID" Value="1"/>
      <ItemData ItemOID="IT.AE.AETERM" Value="FALL"/>
      <ItemData ItemOID="IT.AE.AESEV" Value="MILD"/>
      <ItemData ItemOID="IT.AE.AESER" Value="N"/>
      <ItemData ItemOID="IT.AE.AEACN" Value="DOSE NOT CHANGED"/>
      <ItemData ItemOID="IT.AE.AEREL" Value="UNLIKELY RELATED"/>
      <ItemData ItemOID="IT.AE.AEOUT" Value="RECOVERED/RESOLVED"/>
      <ItemData ItemOID="IT.AE.AESCAN" Value="N"/>
      <ItemData ItemOID="IT.AE.AESCONG" Value="N"/>
      <ItemData ItemOID="IT.AE.AESDISAB" Value="N"/>
      <ItemData ItemOID="IT.AE.AESDTH" Value="N"/>
      <ItemData ItemOID="IT.AE.AESHOSP" Value="N"/>
      <ItemData ItemOID="IT.AE.AESLIFE" Value="N"/>
      <ItemData ItemOID="IT.AE.AESOD" Value="N"/>
      <ItemData ItemOID="IT.AE.EPOCH" Value="TREATMENT"/>
      <ItemData ItemOID="IT.AE.AESTDTC" Value="2013-10-09"/>
      <ItemData ItemOID="IT.AE.AEENDTC" Value="2013-10-09"/>
      <ItemData ItemOID="IT.AE.AESTDY" Value="19"/>
      <ItemData ItemOID="IT.AE.AEENDY" Value="19"/>
    </ItemGroupData>
    <ItemGroupData ItemGroupOID="IG.AE" data:ItemGroupDataSeq="61">
      <ItemData ItemOID="IT.AE.STUDYID" Value="CDISCPILOT01"/>
      <ItemData ItemOID="IT.AE.DOMAIN" Value="AE"/>
      <ItemData ItemOID="IT.AE.USUBJID" Value="CDISC017"/>
      <ItemData ItemOID="IT.AE.AESEQ" Value="2"/>
      <ItemData ItemOID="IT.AE.AELNKID" Value="2"/>
      <ItemData ItemOID="IT.AE.AETERM" Value="BALANCE DISORDER"/>
      <ItemData ItemOID="IT.AE.AESEV" Value="MODERATE"/>
      <ItemData ItemOID="IT.AE.AESER" Value="N"/>
      <ItemData ItemOID="IT.AE.AEACN" Value="DOSE NOT CHANGED"/>
      <ItemData ItemOID="IT.AE.AEREL" Value="POSSIBLY RELATED"/>
      <ItemData ItemOID="IT.AE.AEOUT" Value="RECOVERED/RESOLVED"/>
      <ItemData ItemOID="IT.AE.AESCAN" Value="N"/>
      <ItemData ItemOID="IT.AE.AESCONG" Value="N"/>
      <ItemData ItemOID="IT.AE.AESDISAB" Value="N"/>
      <ItemData ItemOID="IT.AE.AESDTH" Value="N"/>
      <ItemData ItemOID="IT.AE.AESHOSP" Value="N"/>
      <ItemData ItemOID="IT.AE.AESLIFE" Value="N"/>
      <ItemData ItemOID="IT.AE.AESOD" Value="N"/>
      <ItemData ItemOID="IT.AE.EPOCH" Value="TREATMENT"/>
      <ItemData ItemOID="IT.AE.AESTDTC" Value="2013-10-09"/>
      <ItemData ItemOID="IT.AE.AEENDTC" Value="2013-11-15"/>
      <ItemData ItemOID="IT.AE.AESTDY" Value="19"/>
      <ItemData ItemOID="IT.AE.AEENDY" Value="56"/>
    </ItemGroupData>
    <ItemGroupData ItemGroupOID="IG.AE" data:ItemGroupDataSeq="62">
      <ItemData ItemOID="IT.AE.STUDYID" Value="CDISCPILOT01"/>
      <ItemData ItemOID="IT.AE.DOMAIN" Value="AE"/>
      <ItemData ItemOID="IT.AE.USUBJID" Value="CDISC017"/>
      <ItemData ItemOID="IT.AE.AESEQ" Value="3"/>
      <ItemData ItemOID="IT.AE.AELNKID" Value="3"/>
      <ItemData ItemOID="IT.AE.AETERM" Value="CONTUSION"/>
      <ItemData ItemOID="IT.AE.AESEV" Value="MODERATE"/>
      <ItemData ItemOID="IT.AE.AESER" Value="N"/>
      <ItemData ItemOID="IT.AE.AEACN" Value="DOSE NOT CHANGED"/>
      <ItemData ItemOID="IT.AE.AEREL" Value="UNLIKELY RELATED"/>
      <ItemData ItemOID="IT.AE.AEOUT" Value="RECOVERED/RESOLVED"/>
      <ItemData ItemOID="IT.AE.AESCAN" Value="N"/>
      <ItemData ItemOID="IT.AE.AESCONG" Value="N"/>
      <ItemData ItemOID="IT.AE.AESDISAB" Value="N"/>
      <ItemData ItemOID="IT.AE.AESDTH" Value="N"/>
      <ItemData ItemOID="IT.AE.AESHOSP" Value="N"/>
      <ItemData ItemOID="IT.AE.AESLIFE" Value="N"/>
      <ItemData ItemOID="IT.AE.AESOD" Value="N"/>
      <ItemData ItemOID="IT.AE.EPOCH" Value="TREATMENT"/>
      <ItemData ItemOID="IT.AE.AESTDTC" Value="2013-10-15"/>
      <ItemData ItemOID="IT.AE.AEENDTC" Value="2013-11-02"/>
      <ItemData ItemOID="IT.AE.AESTDY" Value="25"/>
      <ItemData ItemOID="IT.AE.AEENDY" Value="43"/>
    </ItemGroupData>
    <ItemGroupData ItemGroupOID="IG.AE" data:ItemGroupDataSeq="63">
      <ItemData ItemOID="IT.AE.STUDYID" Value="CDISCPILOT01"/>
      <ItemData ItemOID="IT.AE.DOMAIN" Value="AE"/>
      <ItemData ItemOID="IT.AE.USUBJID" Value="CDISC017"/>
      <ItemData ItemOID="IT.AE.AESEQ" Value="4"/>
      <ItemData ItemOID="IT.AE.AELNKID" Value="4"/>
      <ItemData ItemOID="IT.AE.AETERM" Value="COORDINATION ABNORMAL"/>
      <ItemData ItemOID="IT.AE.AESEV" Value="MILD"/>
      <ItemData ItemOID="IT.AE.AESER" Value="N"/>
      <ItemData ItemOID="IT.AE.AEACN" Value="DOSE NOT CHANGED"/>
      <ItemData ItemOID="IT.AE.AEREL" Value="POSSIBLY RELATED"/>
      <ItemData ItemOID="IT.AE.AEOUT" Value="RECOVERED/RESOLVED"/>
      <ItemData ItemOID="IT.AE.AESCAN" Value="N"/>
      <ItemData ItemOID="IT.AE.AESCONG" Value="N"/>
      <ItemData ItemOID="IT.AE.AESDISAB" Value="N"/>
      <ItemData ItemOID="IT.AE.AESDTH" Value="N"/>
      <ItemData ItemOID="IT.AE.AESHOSP" Value="N"/>
      <ItemData ItemOID="IT.AE.AESLIFE" Value="N"/>
      <ItemData ItemOID="IT.AE.AESOD" Value="N"/>
      <ItemData ItemOID="IT.AE.EPOCH" Value="TREATMENT"/>
      <ItemData ItemOID="IT.AE.AESTDTC" Value="2013-11-15"/>
      <ItemData ItemOID="IT.AE.AEENDTC" Value="2013-11-15"/>
      <ItemData ItemOID="IT.AE.AESTDY" Value="56"/>
      <ItemData ItemOID="IT.AE.AEENDY" Value="56"/>
    </ItemGroupData>
    <ItemGroupData ItemGroupOID="IG.AE" data:ItemGroupDataSeq="64">
      <ItemData ItemOID="IT.AE.STUDYID" Value="CDISCPILOT01"/>
      <ItemData ItemOID="IT.AE.DOMAIN" Value="AE"/>
      <ItemData ItemOID="IT.AE.USUBJID" Value="CDISC017"/>
      <ItemData ItemOID="IT.AE.AESEQ" Value="5"/>
      <ItemData ItemOID="IT.AE.AELNKID" Value="5"/>
      <ItemData ItemOID="IT.AE.AETERM" Value="INJECTION SITE REACTION"/>
      <ItemData ItemOID="IT.AE.AESEV" Value="MODERATE"/>
      <ItemData ItemOID="IT.AE.AESER" Value="N"/>
      <ItemData ItemOID="IT.AE.AEACN" Value="DRUG WITHDRAWN"/>
      <ItemData ItemOID="IT.AE.AEREL" Value="RELATED"/>
      <ItemData ItemOID="IT.AE.AEOUT" Value="RECOVERED/RESOLVED"/>
      <ItemData ItemOID="IT.AE.AESCAN" Value="N"/>
      <ItemData ItemOID="IT.AE.AESCONG" Value="N"/>
      <ItemData ItemOID="IT.AE.AESDISAB" Value="N"/>
      <ItemData ItemOID="IT.AE.AESDTH" Value="N"/>
      <ItemData ItemOID="IT.AE.AESHOSP" Value="N"/>
      <ItemData ItemOID="IT.AE.AESLIFE" Value="N"/>
      <ItemData ItemOID="IT.AE.AESOD" Value="N"/>
      <ItemData ItemOID="IT.AE.EPOCH" Value="TREATMENT"/>
      <ItemData ItemOID="IT.AE.AESTDTC" Value="2013-12-29"/>
      <ItemData ItemOID="IT.AE.AEENDTC" Value="2014-02-19"/>
      <ItemData ItemOID="IT.AE.AESTDY" Value="100"/>
      <ItemData ItemOID="IT.AE.AEENDY" Value="152"/>
    </ItemGroupData>
    <ItemGroupData ItemGroupOID="IG.AE" data:ItemGroupDataSeq="65">
      <ItemData ItemOID="IT.AE.STUDYID" Value="CDISCPILOT01"/>
      <ItemData ItemOID="IT.AE.DOMAIN" Value="AE"/>
      <ItemData ItemOID="IT.AE.USUBJID" Value="CDISC018"/>
      <ItemData ItemOID="IT.AE.AESEQ" Value="1"/>
      <ItemData ItemOID="IT.AE.AELNKID" Value="1"/>
      <ItemData ItemOID="IT.AE.AETERM" Value="BACK PAIN"/>
      <ItemData ItemOID="IT.AE.AESEV" Value="MILD"/>
      <ItemData ItemOID="IT.AE.AESER" Value="N"/>
      <ItemData ItemOID="IT.AE.AEACN" Value="DOSE NOT CHANGED"/>
      <ItemData ItemOID="IT.AE.AEREL" Value="NOT RELATED"/>
      <ItemData ItemOID="IT.AE.AEOUT" Value="RECOVERED/RESOLVED"/>
      <ItemData ItemOID="IT.AE.AESCAN" Value="N"/>
      <ItemData ItemOID="IT.AE.AESCONG" Value="N"/>
      <ItemData ItemOID="IT.AE.AESDISAB" Value="N"/>
      <ItemData ItemOID="IT.AE.AESDTH" Value="N"/>
      <ItemData ItemOID="IT.AE.AESHOSP" Value="N"/>
      <ItemData ItemOID="IT.AE.AESLIFE" Value="N"/>
      <ItemData ItemOID="IT.AE.AESOD" Value="N"/>
      <ItemData ItemOID="IT.AE.EPOCH" Value="TREATMENT"/>
      <ItemData ItemOID="IT.AE.AESTDTC" Value="2012-12-18"/>
      <ItemData ItemOID="IT.AE.AEENDTC" Value="2012-12-18"/>
      <ItemData ItemOID="IT.AE.AESTDY" Value="2"/>
      <ItemData ItemOID="IT.AE.AEENDY" Value="2"/>
    </ItemGroupData>
    <ItemGroupData ItemGroupOID="IG.AE" data:ItemGroupDataSeq="66">
      <ItemData ItemOID="IT.AE.STUDYID" Value="CDISCPILOT01"/>
      <ItemData ItemOID="IT.AE.DOMAIN" Value="AE"/>
      <ItemData ItemOID="IT.AE.USUBJID" Value="CDISC018"/>
      <ItemData ItemOID="IT.AE.AESEQ" Value="2"/>
      <ItemData ItemOID="IT.AE.AELNKID" Value="2"/>
      <ItemData ItemOID="IT.AE.AETERM" Value="NAUSEA"/>
      <ItemData ItemOID="IT.AE.AESEV" Value="MODERATE"/>
      <ItemData ItemOID="IT.AE.AESER" Value="N"/>
      <ItemData ItemOID="IT.AE.AEACN" Value="DOSE NOT CHANGED"/>
      <ItemData ItemOID="IT.AE.AEREL" Value="UNLIKELY RELATED"/>
      <ItemData ItemOID="IT.AE.AEOUT" Value="RECOVERED/RESOLVED"/>
      <ItemData ItemOID="IT.AE.AESCAN" Value="N"/>
      <ItemData ItemOID="IT.AE.AESCONG" Value="N"/>
      <ItemData ItemOID="IT.AE.AESDISAB" Value="N"/>
      <ItemData ItemOID="IT.AE.AESDTH" Value="N"/>
      <ItemData ItemOID="IT.AE.AESHOSP" Value="N"/>
      <ItemData ItemOID="IT.AE.AESLIFE" Value="N"/>
      <ItemData ItemOID="IT.AE.AESOD" Value="N"/>
      <ItemData ItemOID="IT.AE.EPOCH" Value="TREATMENT"/>
      <ItemData ItemOID="IT.AE.AESTDTC" Value="2012-12-26"/>
      <ItemData ItemOID="IT.AE.AEENDTC" Value="2012-12-26"/>
      <ItemData ItemOID="IT.AE.AESTDY" Value="10"/>
      <ItemData ItemOID="IT.AE.AEENDY" Value="10"/>
    </ItemGroupData>
    <ItemGroupData ItemGroupOID="IG.AE" data:ItemGroupDataSeq="67">
      <ItemData ItemOID="IT.AE.STUDYID" Value="CDISCPILOT01"/>
      <ItemData ItemOID="IT.AE.DOMAIN" Value="AE"/>
      <ItemData ItemOID="IT.AE.USUBJID" Value="CDISC018"/>
      <ItemData ItemOID="IT.AE.AESEQ" Value="3"/>
      <ItemData ItemOID="IT.AE.AELNKID" Value="3"/>
      <ItemData ItemOID="IT.AE.AETERM" Value="AMNESIA"/>
      <ItemData ItemOID="IT.AE.AESEV" Value="MILD"/>
      <ItemData ItemOID="IT.AE.AESER" Value="N"/>
      <ItemData ItemOID="IT.AE.AEACN" Value="DOSE NOT CHANGED"/>
      <ItemData ItemOID="IT.AE.AEREL" Value="NOT RELATED"/>
      <ItemData ItemOID="IT.AE.AEOUT" Value="RECOVERED/RESOLVED"/>
      <ItemData ItemOID="IT.AE.AESCAN" Value="N"/>
      <ItemData ItemOID="IT.AE.AESCONG" Value="N"/>
      <ItemData ItemOID="IT.AE.AESDISAB" Value="N"/>
      <ItemData ItemOID="IT.AE.AESDTH" Value="N"/>
      <ItemData ItemOID="IT.AE.AESHOSP" Value="N"/>
      <ItemData ItemOID="IT.AE.AESLIFE" Value="N"/>
      <ItemData ItemOID="IT.AE.AESOD" Value="N"/>
      <ItemData ItemOID="IT.AE.EPOCH" Value="TREATMENT"/>
      <ItemData ItemOID="IT.AE.AESTDTC" Value="2013-01-01"/>
      <ItemData ItemOID="IT.AE.AEENDTC" Value="2013-01-19"/>
      <ItemData ItemOID="IT.AE.AESTDY" Value="16"/>
      <ItemData ItemOID="IT.AE.AEENDY" Value="34"/>
    </ItemGroupData>
    <ItemGroupData ItemGroupOID="IG.AE" data:ItemGroupDataSeq="68">
      <ItemData ItemOID="IT.AE.STUDYID" Value="CDISCPILOT01"/>
      <ItemData ItemOID="IT.AE.DOMAIN" Value="AE"/>
      <ItemData ItemOID="IT.AE.USUBJID" Value="CDISC018"/>
      <ItemData ItemOID="IT.AE.AESEQ" Value="4"/>
      <ItemData ItemOID="IT.AE.AELNKID" Value="4"/>
      <ItemData ItemOID="IT.AE.AETERM" Value="NAUSEA"/>
      <ItemData ItemOID="IT.AE.AESEV" Value="MODERATE"/>
      <ItemData ItemOID="IT.AE.AESER" Value="N"/>
      <ItemData ItemOID="IT.AE.AEACN" Value="DOSE NOT CHANGED"/>
      <ItemData ItemOID="IT.AE.AEREL" Value="POSSIBLY RELATED"/>
      <ItemData ItemOID="IT.AE.AEOUT" Value="RECOVERED/RESOLVED"/>
      <ItemData ItemOID="IT.AE.AESCAN" Value="N"/>
      <ItemData ItemOID="IT.AE.AESCONG" Value="N"/>
      <ItemData ItemOID="IT.AE.AESDISAB" Value="N"/>
      <ItemData ItemOID="IT.AE.AESDTH" Value="N"/>
      <ItemData ItemOID="IT.AE.AESHOSP" Value="N"/>
      <ItemData ItemOID="IT.AE.AESLIFE" Value="N"/>
      <ItemData ItemOID="IT.AE.AESOD" Value="N"/>
      <ItemData ItemOID="IT.AE.EPOCH" Value="TREATMENT"/>
      <ItemData ItemOID="IT.AE.AESTDTC" Value="2013-01-03"/>
      <ItemData ItemOID="IT.AE.AEENDTC" Value="2013-01-09"/>
      <ItemData ItemOID="IT.AE.AESTDY" Value="18"/>
      <ItemData ItemOID="IT.AE.AEENDY" Value="24"/>
    </ItemGroupData>
    <ItemGroupData ItemGroupOID="IG.AE" data:ItemGroupDataSeq="69">
      <ItemData ItemOID="IT.AE.STUDYID" Value="CDISCPILOT01"/>
      <ItemData ItemOID="IT.AE.DOMAIN" Value="AE"/>
      <ItemData ItemOID="IT.AE.USUBJID" Value="CDISC018"/>
      <ItemData ItemOID="IT.AE.AESEQ" Value="5"/>
      <ItemData ItemOID="IT.AE.AELNKID" Value="5"/>
      <ItemData ItemOID="IT.AE.AETERM" Value="LETHARGY"/>
      <ItemData ItemOID="IT.AE.AESEV" Value="MODERATE"/>
      <ItemData ItemOID="IT.AE.AESER" Value="N"/>
      <ItemData ItemOID="IT.AE.AEACN" Value="DOSE NOT CHANGED"/>
      <ItemData ItemOID="IT.AE.AEREL" Value="POSSIBLY RELATED"/>
      <ItemData ItemOID="IT.AE.AEOUT" Value="RECOVERED/RESOLVED"/>
      <ItemData ItemOID="IT.AE.AESCAN" Value="N"/>
      <ItemData ItemOID="IT.AE.AESCONG" Value="N"/>
      <ItemData ItemOID="IT.AE.AESDISAB" Value="N"/>
      <ItemData ItemOID="IT.AE.AESDTH" Value="N"/>
      <ItemData ItemOID="IT.AE.AESHOSP" Value="N"/>
      <ItemData ItemOID="IT.AE.AESLIFE" Value="N"/>
      <ItemData ItemOID="IT.AE.AESOD" Value="N"/>
      <ItemData ItemOID="IT.AE.EPOCH" Value="TREATMENT"/>
      <ItemData ItemOID="IT.AE.AESTDTC" Value="2013-01-05"/>
      <ItemData ItemOID="IT.AE.AEENDTC" Value="2013-01-05"/>
      <ItemData ItemOID="IT.AE.AESTDY" Value="20"/>
      <ItemData ItemOID="IT.AE.AEENDY" Value="20"/>
    </ItemGroupData>
    <ItemGroupData ItemGroupOID="IG.AE" data:ItemGroupDataSeq="70">
      <ItemData ItemOID="IT.AE.STUDYID" Value="CDISCPILOT01"/>
      <ItemData ItemOID="IT.AE.DOMAIN" Value="AE"/>
      <ItemData ItemOID="IT.AE.USUBJID" Value="CDISC018"/>
      <ItemData ItemOID="IT.AE.AESEQ" Value="6"/>
      <ItemData ItemOID="IT.AE.AELNKID" Value="6"/>
      <ItemData ItemOID="IT.AE.AETERM" Value="NAUSEA"/>
      <ItemData ItemOID="IT.AE.AESEV" Value="MODERATE"/>
      <ItemData ItemOID="IT.AE.AESER" Value="N"/>
      <ItemData ItemOID="IT.AE.AEACN" Value="DOSE NOT CHANGED"/>
      <ItemData ItemOID="IT.AE.AEREL" Value="POSSIBLY RELATED"/>
      <ItemData ItemOID="IT.AE.AEOUT" Value="RECOVERED/RESOLVED"/>
      <ItemData ItemOID="IT.AE.AESCAN" Value="N"/>
      <ItemData ItemOID="IT.AE.AESCONG" Value="N"/>
      <ItemData ItemOID="IT.AE.AESDISAB" Value="N"/>
      <ItemData ItemOID="IT.AE.AESDTH" Value="N"/>
      <ItemData ItemOID="IT.AE.AESHOSP" Value="N"/>
      <ItemData ItemOID="IT.AE.AESLIFE" Value="N"/>
      <ItemData ItemOID="IT.AE.AESOD" Value="N"/>
      <ItemData ItemOID="IT.AE.EPOCH" Value="TREATMENT"/>
      <ItemData ItemOID="IT.AE.AESTDTC" Value="2013-01-16"/>
      <ItemData ItemOID="IT.AE.AEENDTC" Value="2013-01-16"/>
      <ItemData ItemOID="IT.AE.AESTDY" Value="31"/>
      <ItemData ItemOID="IT.AE.AEENDY" Value="31"/>
    </ItemGroupData>
    <ItemGroupData ItemGroupOID="IG.AE" data:ItemGroupDataSeq="71">
      <ItemData ItemOID="IT.AE.STUDYID" Value="CDISCPILOT01"/>
      <ItemData ItemOID="IT.AE.DOMAIN" Value="AE"/>
      <ItemData ItemOID="IT.AE.USUBJID" Value="CDISC018"/>
      <ItemData ItemOID="IT.AE.AESEQ" Value="7"/>
      <ItemData ItemOID="IT.AE.AELNKID" Value="7"/>
      <ItemData ItemOID="IT.AE.AETERM" Value="NAUSEA"/>
      <ItemData ItemOID="IT.AE.AESEV" Value="SEVERE"/>
      <ItemData ItemOID="IT.AE.AESER" Value="N"/>
      <ItemData ItemOID="IT.AE.AEACN" Value="DOSE NOT CHANGED"/>
      <ItemData ItemOID="IT.AE.AEREL" Value="RELATED"/>
      <ItemData ItemOID="IT.AE.AEOUT" Value="RECOVERED/RESOLVED"/>
      <ItemData ItemOID="IT.AE.AESCAN" Value="N"/>
      <ItemData ItemOID="IT.AE.AESCONG" Value="N"/>
      <ItemData ItemOID="IT.AE.AESDISAB" Value="N"/>
      <ItemData ItemOID="IT.AE.AESDTH" Value="N"/>
      <ItemData ItemOID="IT.AE.AESHOSP" Value="N"/>
      <ItemData ItemOID="IT.AE.AESLIFE" Value="N"/>
      <ItemData ItemOID="IT.AE.AESOD" Value="N"/>
      <ItemData ItemOID="IT.AE.EPOCH" Value="TREATMENT"/>
      <ItemData ItemOID="IT.AE.AESTDTC" Value="2013-01-21"/>
      <ItemData ItemOID="IT.AE.AEENDTC" Value="2013-01-24"/>
      <ItemData ItemOID="IT.AE.AESTDY" Value="36"/>
      <ItemData ItemOID="IT.AE.AEENDY" Value="39"/>
    </ItemGroupData>
    <ItemGroupData ItemGroupOID="IG.AE" data:ItemGroupDataSeq="72">
      <ItemData ItemOID="IT.AE.STUDYID" Value="CDISCPILOT01"/>
      <ItemData ItemOID="IT.AE.DOMAIN" Value="AE"/>
      <ItemData ItemOID="IT.AE.USUBJID" Value="CDISC018"/>
      <ItemData ItemOID="IT.AE.AESEQ" Value="8"/>
      <ItemData ItemOID="IT.AE.AELNKID" Value="8"/>
      <ItemData ItemOID="IT.AE.AETERM" Value="INJECTION SITE REACTION"/>
      <ItemData ItemOID="IT.AE.AESEV" Value="MODERATE"/>
      <ItemData ItemOID="IT.AE.AESER" Value="N"/>
      <ItemData ItemOID="IT.AE.AEACN" Value="DOSE NOT CHANGED"/>
      <ItemData ItemOID="IT.AE.AEREL" Value="RELATED"/>
      <ItemData ItemOID="IT.AE.AEOUT" Value="RECOVERED/RESOLVED"/>
      <ItemData ItemOID="IT.AE.AESCAN" Value="N"/>
      <ItemData ItemOID="IT.AE.AESCONG" Value="N"/>
      <ItemData ItemOID="IT.AE.AESDISAB" Value="N"/>
      <ItemData ItemOID="IT.AE.AESDTH" Value="N"/>
      <ItemData ItemOID="IT.AE.AESHOSP" Value="N"/>
      <ItemData ItemOID="IT.AE.AESLIFE" Value="N"/>
      <ItemData ItemOID="IT.AE.AESOD" Value="N"/>
      <ItemData ItemOID="IT.AE.EPOCH" Value="TREATMENT"/>
      <ItemData ItemOID="IT.AE.AESTDTC" Value="2013-01-27"/>
      <ItemData ItemOID="IT.AE.AEENDTC" Value="2013-01-28"/>
      <ItemData ItemOID="IT.AE.AESTDY" Value="42"/>
      <ItemData ItemOID="IT.AE.AEENDY" Value="43"/>
    </ItemGroupData>
    <ItemGroupData ItemGroupOID="IG.AE" data:ItemGroupDataSeq="73">
      <ItemData ItemOID="IT.AE.STUDYID" Value="CDISCPILOT01"/>
      <ItemData ItemOID="IT.AE.DOMAIN" Value="AE"/>
      <ItemData ItemOID="IT.AE.USUBJID" Value="CDISC018"/>
      <ItemData ItemOID="IT.AE.AESEQ" Value="9"/>
      <ItemData ItemOID="IT.AE.AELNKID" Value="9"/>
      <ItemData ItemOID="IT.AE.AETERM" Value="DECREASED APPETITE"/>
      <ItemData ItemOID="IT.AE.AESEV" Value="MODERATE"/>
      <ItemData ItemOID="IT.AE.AESER" Value="N"/>
      <ItemData ItemOID="IT.AE.AEACN" Value="DOSE NOT CHANGED"/>
      <ItemData ItemOID="IT.AE.AEREL" Value="POSSIBLY RELATED"/>
      <ItemData ItemOID="IT.AE.AEOUT" Value="RECOVERED/RESOLVED"/>
      <ItemData ItemOID="IT.AE.AESCAN" Value="N"/>
      <ItemData ItemOID="IT.AE.AESCONG" Value="N"/>
      <ItemData ItemOID="IT.AE.AESDISAB" Value="N"/>
      <ItemData ItemOID="IT.AE.AESDTH" Value="N"/>
      <ItemData ItemOID="IT.AE.AESHOSP" Value="N"/>
      <ItemData ItemOID="IT.AE.AESLIFE" Value="N"/>
      <ItemData ItemOID="IT.AE.AESOD" Value="N"/>
      <ItemData ItemOID="IT.AE.EPOCH" Value="TREATMENT"/>
      <ItemData ItemOID="IT.AE.AESTDTC" Value="2013-02-04"/>
      <ItemData ItemOID="IT.AE.AEENDTC" Value="2013-02-25"/>
      <ItemData ItemOID="IT.AE.AESTDY" Value="50"/>
      <ItemData ItemOID="IT.AE.AEENDY" Value="71"/>
    </ItemGroupData>
    <ItemGroupData ItemGroupOID="IG.AE" data:ItemGroupDataSeq="74">
      <ItemData ItemOID="IT.AE.STUDYID" Value="CDISCPILOT01"/>
      <ItemData ItemOID="IT.AE.DOMAIN" Value="AE"/>
      <ItemData ItemOID="IT.AE.USUBJID" Value="CDISC018"/>
      <ItemData ItemOID="IT.AE.AESEQ" Value="10"/>
      <ItemData ItemOID="IT.AE.AELNKID" Value="10"/>
      <ItemData ItemOID="IT.AE.AETERM" Value="NAUSEA"/>
      <ItemData ItemOID="IT.AE.AESEV" Value="MODERATE"/>
      <ItemData ItemOID="IT.AE.AESER" Value="N"/>
      <ItemData ItemOID="IT.AE.AEACN" Value="DOSE NOT CHANGED"/>
      <ItemData ItemOID="IT.AE.AEREL" Value="POSSIBLY RELATED"/>
      <ItemData ItemOID="IT.AE.AEOUT" Value="RECOVERED/RESOLVED"/>
      <ItemData ItemOID="IT.AE.AESCAN" Value="N"/>
      <ItemData ItemOID="IT.AE.AESCONG" Value="N"/>
      <ItemData ItemOID="IT.AE.AESDISAB" Value="N"/>
      <ItemData ItemOID="IT.AE.AESDTH" Value="N"/>
      <ItemData ItemOID="IT.AE.AESHOSP" Value="N"/>
      <ItemData ItemOID="IT.AE.AESLIFE" Value="N"/>
      <ItemData ItemOID="IT.AE.AESOD" Value="N"/>
      <ItemData ItemOID="IT.AE.EPOCH" Value="TREATMENT"/>
      <ItemData ItemOID="IT.AE.AESTDTC" Value="2013-02-04"/>
      <ItemData ItemOID="IT.AE.AEENDTC" Value="2013-02-25"/>
      <ItemData ItemOID="IT.AE.AESTDY" Value="50"/>
      <ItemData ItemOID="IT.AE.AEENDY" Value="71"/>
    </ItemGroupData>
  </ClinicalData>
</ODM>
