<?xml version="1.0" encoding="UTF-8"?>
<!-- Dataset-XML: Untyped Data Example  --> 
<!-- Built from the SAS XPT files published with the SDTM-MSG (SDTM Metadata Submission Guidelines) V2.0 --> 
<ODM
  xmlns="http://www.cdisc.org/ns/odm/v1.3"
  xmlns:xlink="http://www.w3.org/1999/xlink" 
  xmlns:data="http://www.cdisc.org/ns/Dataset-XML/v1.0"
  FileType="Snapshot"
  ODMVersion="1.3.2"
  data:DatasetXMLVersion="1.0.0"
  FileOID="www.cdisc.org/StudyMSGv2/1/Define-XML_2.1.0(IG.EX).Data(EX)"
  PriorFileOID="www.cdisc.org/StudyMSGv2/1/Define-XML_2.1.0"
  CreationDateTime="2020-08-21T09:21:13"
  Originator="CDISC MSG Team"
  SourceSystem="M.Hungria-System"
  SourceSystemVersion="2.1-A1"
  >
  <ClinicalData
    StudyOID="cdisc.com/CDISCPILOT01"
    MetaDataVersionOID="MDV.MSGv2.0.SDTMIG.3.3.SDTM.1.7">
    <!-- Dataset (EX) -->
    <ItemGroupData ItemGroupOID="IG.EX" data:ItemGroupDataSeq="1">
      <ItemData ItemOID="IT.EX.STUDYID" Value="CDISCPILOT01"/>
      <ItemData ItemOID="IT.EX.DOMAIN" Value="EX"/>
      <ItemData ItemOID="IT.EX.USUBJID" Value="CDISC001"/>
      <ItemData ItemOID="IT.EX.SPDEVID" Value="DEV0001"/>
      <ItemData ItemOID="IT.EX.EXSEQ" Value="1"/>
      <ItemData ItemOID="IT.EX.EXTRT" Value="ZANOMALINE"/>
      <ItemData ItemOID="IT.EX.EXDOSE" Value="54"/>
      <ItemData ItemOID="IT.EX.EXDOSU" Value="mg"/>
      <ItemData ItemOID="IT.EX.EXDOSFRM" Value="INJECTION"/>
      <ItemData ItemOID="IT.EX.EXDOSFRQ" Value="QD"/>
      <ItemData ItemOID="IT.EX.EXROUTE" Value="SUBCUTANEOUS"/>
      <ItemData ItemOID="IT.EX.EXLOT" Value="SDS580-359"/>
      <ItemData ItemOID="IT.EX.EPOCH" Value="TREATMENT"/>
      <ItemData ItemOID="IT.EX.EXSTDTC" Value="2012-11-30"/>
      <ItemData ItemOID="IT.EX.EXENDTC" Value="2012-11-30"/>
      <ItemData ItemOID="IT.EX.EXSTDY" Value="1"/>
      <ItemData ItemOID="IT.EX.EXENDY" Value="1"/>
    </ItemGroupData>
    <ItemGroupData ItemGroupOID="IG.EX" data:ItemGroupDataSeq="2">
      <ItemData ItemOID="IT.EX.STUDYID" Value="CDISCPILOT01"/>
      <ItemData ItemOID="IT.EX.DOMAIN" Value="EX"/>
      <ItemData ItemOID="IT.EX.USUBJID" Value="CDISC001"/>
      <ItemData ItemOID="IT.EX.SPDEVID" Value="DEV0001"/>
      <ItemData ItemOID="IT.EX.EXSEQ" Value="2"/>
      <ItemData ItemOID="IT.EX.EXTRT" Value="ZANOMALINE"/>
      <ItemData ItemOID="IT.EX.EXDOSE" Value="54"/>
      <ItemData ItemOID="IT.EX.EXDOSU" Value="mg"/>
      <ItemData ItemOID="IT.EX.EXDOSFRM" Value="INJECTION"/>
      <ItemData ItemOID="IT.EX.EXDOSFRQ" Value="QD"/>
      <ItemData ItemOID="IT.EX.EXROUTE" Value="SUBCUTANEOUS"/>
      <ItemData ItemOID="IT.EX.EXLOT" Value="SDS580-359"/>
      <ItemData ItemOID="IT.EX.EPOCH" Value="TREATMENT"/>
      <ItemData ItemOID="IT.EX.EXSTDTC" Value="2012-12-01"/>
      <ItemData ItemOID="IT.EX.EXENDTC" Value="2012-12-01"/>
      <ItemData ItemOID="IT.EX.EXSTDY" Value="2"/>
      <ItemData ItemOID="IT.EX.EXENDY" Value="2"/>
    </ItemGroupData>
    <ItemGroupData ItemGroupOID="IG.EX" data:ItemGroupDataSeq="3">
      <ItemData ItemOID="IT.EX.STUDYID" Value="CDISCPILOT01"/>
      <ItemData ItemOID="IT.EX.DOMAIN" Value="EX"/>
      <ItemData ItemOID="IT.EX.USUBJID" Value="CDISC001"/>
      <ItemData ItemOID="IT.EX.SPDEVID" Value="DEV0001"/>
      <ItemData ItemOID="IT.EX.EXSEQ" Value="3"/>
      <ItemData ItemOID="IT.EX.EXTRT" Value="ZANOMALINE"/>
      <ItemData ItemOID="IT.EX.EXDOSE" Value="54"/>
      <ItemData ItemOID="IT.EX.EXDOSU" Value="mg"/>
      <ItemData ItemOID="IT.EX.EXDOSFRM" Value="INJECTION"/>
      <ItemData ItemOID="IT.EX.EXDOSFRQ" Value="QD"/>
      <ItemData ItemOID="IT.EX.EXROUTE" Value="SUBCUTANEOUS"/>
      <ItemData ItemOID="IT.EX.EXLOT" Value="SDS580-359"/>
      <ItemData ItemOID="IT.EX.EPOCH" Value="TREATMENT"/>
      <ItemData ItemOID="IT.EX.EXSTDTC" Value="2012-12-02"/>
      <ItemData ItemOID="IT.EX.EXENDTC" Value="2012-12-02"/>
      <ItemData ItemOID="IT.EX.EXSTDY" Value="3"/>
      <ItemData ItemOID="IT.EX.EXENDY" Value="3"/>
    </ItemGroupData>
    <ItemGroupData ItemGroupOID="IG.EX" data:ItemGroupDataSeq="4">
      <ItemData ItemOID="IT.EX.STUDYID" Value="CDISCPILOT01"/>
      <ItemData ItemOID="IT.EX.DOMAIN" Value="EX"/>
      <ItemData ItemOID="IT.EX.USUBJID" Value="CDISC001"/>
      <ItemData ItemOID="IT.EX.SPDEVID" Value="DEV0001"/>
      <ItemData ItemOID="IT.EX.EXSEQ" Value="4"/>
      <ItemData ItemOID="IT.EX.EXTRT" Value="ZANOMALINE"/>
      <ItemData ItemOID="IT.EX.EXDOSE" Value="54"/>
      <ItemData ItemOID="IT.EX.EXDOSU" Value="mg"/>
      <ItemData ItemOID="IT.EX.EXDOSFRM" Value="INJECTION"/>
      <ItemData ItemOID="IT.EX.EXDOSFRQ" Value="QD"/>
      <ItemData ItemOID="IT.EX.EXROUTE" Value="SUBCUTANEOUS"/>
      <ItemData ItemOID="IT.EX.EXLOT" Value="SDS580-359"/>
      <ItemData ItemOID="IT.EX.EPOCH" Value="TREATMENT"/>
      <ItemData ItemOID="IT.EX.EXSTDTC" Value="2012-12-03"/>
      <ItemData ItemOID="IT.EX.EXENDTC" Value="2012-12-03"/>
      <ItemData ItemOID="IT.EX.EXSTDY" Value="4"/>
      <ItemData ItemOID="IT.EX.EXENDY" Value="4"/>
    </ItemGroupData>
    <ItemGroupData ItemGroupOID="IG.EX" data:ItemGroupDataSeq="5">
      <ItemData ItemOID="IT.EX.STUDYID" Value="CDISCPILOT01"/>
      <ItemData ItemOID="IT.EX.DOMAIN" Value="EX"/>
      <ItemData ItemOID="IT.EX.USUBJID" Value="CDISC001"/>
      <ItemData ItemOID="IT.EX.SPDEVID" Value="DEV0001"/>
      <ItemData ItemOID="IT.EX.EXSEQ" Value="5"/>
      <ItemData ItemOID="IT.EX.EXTRT" Value="ZANOMALINE"/>
      <ItemData ItemOID="IT.EX.EXDOSE" Value="54"/>
      <ItemData ItemOID="IT.EX.EXDOSU" Value="mg"/>
      <ItemData ItemOID="IT.EX.EXDOSFRM" Value="INJECTION"/>
      <ItemData ItemOID="IT.EX.EXDOSFRQ" Value="QD"/>
      <ItemData ItemOID="IT.EX.EXROUTE" Value="SUBCUTANEOUS"/>
      <ItemData ItemOID="IT.EX.EXLOT" Value="SDS580-359"/>
      <ItemData ItemOID="IT.EX.EPOCH" Value="TREATMENT"/>
      <ItemData ItemOID="IT.EX.EXSTDTC" Value="2012-12-04"/>
      <ItemData ItemOID="IT.EX.EXENDTC" Value="2012-12-04"/>
      <ItemData ItemOID="IT.EX.EXSTDY" Value="5"/>
      <ItemData ItemOID="IT.EX.EXENDY" Value="5"/>
    </ItemGroupData>
    <ItemGroupData ItemGroupOID="IG.EX" data:ItemGroupDataSeq="6">
      <ItemData ItemOID="IT.EX.STUDYID" Value="CDISCPILOT01"/>
      <ItemData ItemOID="IT.EX.DOMAIN" Value="EX"/>
      <ItemData ItemOID="IT.EX.USUBJID" Value="CDISC001"/>
      <ItemData ItemOID="IT.EX.SPDEVID" Value="DEV0001"/>
      <ItemData ItemOID="IT.EX.EXSEQ" Value="6"/>
      <ItemData ItemOID="IT.EX.EXTRT" Value="ZANOMALINE"/>
      <ItemData ItemOID="IT.EX.EXDOSE" Value="54"/>
      <ItemData ItemOID="IT.EX.EXDOSU" Value="mg"/>
      <ItemData ItemOID="IT.EX.EXDOSFRM" Value="INJECTION"/>
      <ItemData ItemOID="IT.EX.EXDOSFRQ" Value="QD"/>
      <ItemData ItemOID="IT.EX.EXROUTE" Value="SUBCUTANEOUS"/>
      <ItemData ItemOID="IT.EX.EXLOT" Value="SDS580-359"/>
      <ItemData ItemOID="IT.EX.EPOCH" Value="TREATMENT"/>
      <ItemData ItemOID="IT.EX.EXSTDTC" Value="2012-12-05"/>
      <ItemData ItemOID="IT.EX.EXENDTC" Value="2012-12-05"/>
      <ItemData ItemOID="IT.EX.EXSTDY" Value="6"/>
      <ItemData ItemOID="IT.EX.EXENDY" Value="6"/>
    </ItemGroupData>
    <ItemGroupData ItemGroupOID="IG.EX" data:ItemGroupDataSeq="7">
      <ItemData ItemOID="IT.EX.STUDYID" Value="CDISCPILOT01"/>
      <ItemData ItemOID="IT.EX.DOMAIN" Value="EX"/>
      <ItemData ItemOID="IT.EX.USUBJID" Value="CDISC001"/>
      <ItemData ItemOID="IT.EX.SPDEVID" Value="DEV0001"/>
      <ItemData ItemOID="IT.EX.EXSEQ" Value="7"/>
      <ItemData ItemOID="IT.EX.EXTRT" Value="ZANOMALINE"/>
      <ItemData ItemOID="IT.EX.EXDOSE" Value="54"/>
      <ItemData ItemOID="IT.EX.EXDOSU" Value="mg"/>
      <ItemData ItemOID="IT.EX.EXDOSFRM" Value="INJECTION"/>
      <ItemData ItemOID="IT.EX.EXDOSFRQ" Value="QD"/>
      <ItemData ItemOID="IT.EX.EXROUTE" Value="SUBCUTANEOUS"/>
      <ItemData ItemOID="IT.EX.EXLOT" Value="SDS580-359"/>
      <ItemData ItemOID="IT.EX.EPOCH" Value="TREATMENT"/>
      <ItemData ItemOID="IT.EX.EXSTDTC" Value="2012-12-06"/>
      <ItemData ItemOID="IT.EX.EXENDTC" Value="2012-12-06"/>
      <ItemData ItemOID="IT.EX.EXSTDY" Value="7"/>
      <ItemData ItemOID="IT.EX.EXENDY" Value="7"/>
    </ItemGroupData>
    <ItemGroupData ItemGroupOID="IG.EX" data:ItemGroupDataSeq="8">
      <ItemData ItemOID="IT.EX.STUDYID" Value="CDISCPILOT01"/>
      <ItemData ItemOID="IT.EX.DOMAIN" Value="EX"/>
      <ItemData ItemOID="IT.EX.USUBJID" Value="CDISC001"/>
      <ItemData ItemOID="IT.EX.SPDEVID" Value="DEV0001"/>
      <ItemData ItemOID="IT.EX.EXSEQ" Value="8"/>
      <ItemData ItemOID="IT.EX.EXTRT" Value="ZANOMALINE"/>
      <ItemData ItemOID="IT.EX.EXDOSE" Value="54"/>
      <ItemData ItemOID="IT.EX.EXDOSU" Value="mg"/>
      <ItemData ItemOID="IT.EX.EXDOSFRM" Value="INJECTION"/>
      <ItemData ItemOID="IT.EX.EXDOSFRQ" Value="QD"/>
      <ItemData ItemOID="IT.EX.EXROUTE" Value="SUBCUTANEOUS"/>
      <ItemData ItemOID="IT.EX.EXLOT" Value="SDS580-359"/>
      <ItemData ItemOID="IT.EX.EPOCH" Value="TREATMENT"/>
      <ItemData ItemOID="IT.EX.EXSTDTC" Value="2012-12-07"/>
      <ItemData ItemOID="IT.EX.EXENDTC" Value="2012-12-07"/>
      <ItemData ItemOID="IT.EX.EXSTDY" Value="8"/>
      <ItemData ItemOID="IT.EX.EXENDY" Value="8"/>
    </ItemGroupData>
    <ItemGroupData ItemGroupOID="IG.EX" data:ItemGroupDataSeq="9">
      <ItemData ItemOID="IT.EX.STUDYID" Value="CDISCPILOT01"/>
      <ItemData ItemOID="IT.EX.DOMAIN" Value="EX"/>
      <ItemData ItemOID="IT.EX.USUBJID" Value="CDISC001"/>
      <ItemData ItemOID="IT.EX.SPDEVID" Value="DEV0001"/>
      <ItemData ItemOID="IT.EX.EXSEQ" Value="9"/>
      <ItemData ItemOID="IT.EX.EXTRT" Value="ZANOMALINE"/>
      <ItemData ItemOID="IT.EX.EXDOSE" Value="54"/>
      <ItemData ItemOID="IT.EX.EXDOSU" Value="mg"/>
      <ItemData ItemOID="IT.EX.EXDOSFRM" Value="INJECTION"/>
      <ItemData ItemOID="IT.EX.EXDOSFRQ" Value="QD"/>
      <ItemData ItemOID="IT.EX.EXROUTE" Value="SUBCUTANEOUS"/>
      <ItemData ItemOID="IT.EX.EXLOT" Value="SDS580-359"/>
      <ItemData ItemOID="IT.EX.EPOCH" Value="TREATMENT"/>
      <ItemData ItemOID="IT.EX.EXSTDTC" Value="2012-12-08"/>
      <ItemData ItemOID="IT.EX.EXENDTC" Value="2012-12-08"/>
      <ItemData ItemOID="IT.EX.EXSTDY" Value="9"/>
      <ItemData ItemOID="IT.EX.EXENDY" Value="9"/>
    </ItemGroupData>
    <ItemGroupData ItemGroupOID="IG.EX" data:ItemGroupDataSeq="10">
      <ItemData ItemOID="IT.EX.STUDYID" Value="CDISCPILOT01"/>
      <ItemData ItemOID="IT.EX.DOMAIN" Value="EX"/>
      <ItemData ItemOID="IT.EX.USUBJID" Value="CDISC001"/>
      <ItemData ItemOID="IT.EX.SPDEVID" Value="DEV0001"/>
      <ItemData ItemOID="IT.EX.EXSEQ" Value="10"/>
      <ItemData ItemOID="IT.EX.EXTRT" Value="ZANOMALINE"/>
      <ItemData ItemOID="IT.EX.EXDOSE" Value="54"/>
      <ItemData ItemOID="IT.EX.EXDOSU" Value="mg"/>
      <ItemData ItemOID="IT.EX.EXDOSFRM" Value="INJECTION"/>
      <ItemData ItemOID="IT.EX.EXDOSFRQ" Value="QD"/>
      <ItemData ItemOID="IT.EX.EXROUTE" Value="SUBCUTANEOUS"/>
      <ItemData ItemOID="IT.EX.EXLOT" Value="SDS580-359"/>
      <ItemData ItemOID="IT.EX.EPOCH" Value="TREATMENT"/>
      <ItemData ItemOID="IT.EX.EXSTDTC" Value="2012-12-09"/>
      <ItemData ItemOID="IT.EX.EXENDTC" Value="2012-12-09"/>
      <ItemData ItemOID="IT.EX.EXSTDY" Value="10"/>
      <ItemData ItemOID="IT.EX.EXENDY" Value="10"/>
    </ItemGroupData>
    <ItemGroupData ItemGroupOID="IG.EX" data:ItemGroupDataSeq="11">
      <ItemData ItemOID="IT.EX.STUDYID" Value="CDISCPILOT01"/>
      <ItemData ItemOID="IT.EX.DOMAIN" Value="EX"/>
      <ItemData ItemOID="IT.EX.USUBJID" Value="CDISC001"/>
      <ItemData ItemOID="IT.EX.SPDEVID" Value="DEV0001"/>
      <ItemData ItemOID="IT.EX.EXSEQ" Value="11"/>
      <ItemData ItemOID="IT.EX.EXTRT" Value="ZANOMALINE"/>
      <ItemData ItemOID="IT.EX.EXDOSE" Value="54"/>
      <ItemData ItemOID="IT.EX.EXDOSU" Value="mg"/>
      <ItemData ItemOID="IT.EX.EXDOSFRM" Value="INJECTION"/>
      <ItemData ItemOID="IT.EX.EXDOSFRQ" Value="QD"/>
      <ItemData ItemOID="IT.EX.EXROUTE" Value="SUBCUTANEOUS"/>
      <ItemData ItemOID="IT.EX.EXLOT" Value="SDS580-359"/>
      <ItemData ItemOID="IT.EX.EPOCH" Value="TREATMENT"/>
      <ItemData ItemOID="IT.EX.EXSTDTC" Value="2012-12-10"/>
      <ItemData ItemOID="IT.EX.EXENDTC" Value="2012-12-10"/>
      <ItemData ItemOID="IT.EX.EXSTDY" Value="11"/>
      <ItemData ItemOID="IT.EX.EXENDY" Value="11"/>
    </ItemGroupData>
    <ItemGroupData ItemGroupOID="IG.EX" data:ItemGroupDataSeq="12">
      <ItemData ItemOID="IT.EX.STUDYID" Value="CDISCPILOT01"/>
      <ItemData ItemOID="IT.EX.DOMAIN" Value="EX"/>
      <ItemData ItemOID="IT.EX.USUBJID" Value="CDISC001"/>
      <ItemData ItemOID="IT.EX.SPDEVID" Value="DEV0001"/>
      <ItemData ItemOID="IT.EX.EXSEQ" Value="12"/>
      <ItemData ItemOID="IT.EX.EXTRT" Value="ZANOMALINE"/>
      <ItemData ItemOID="IT.EX.EXDOSE" Value="54"/>
      <ItemData ItemOID="IT.EX.EXDOSU" Value="mg"/>
      <ItemData ItemOID="IT.EX.EXDOSFRM" Value="INJECTION"/>
      <ItemData ItemOID="IT.EX.EXDOSFRQ" Value="QD"/>
      <ItemData ItemOID="IT.EX.EXROUTE" Value="SUBCUTANEOUS"/>
      <ItemData ItemOID="IT.EX.EXLOT" Value="SDS580-359"/>
      <ItemData ItemOID="IT.EX.EPOCH" Value="TREATMENT"/>
      <ItemData ItemOID="IT.EX.EXSTDTC" Value="2012-12-11"/>
      <ItemData ItemOID="IT.EX.EXENDTC" Value="2012-12-11"/>
      <ItemData ItemOID="IT.EX.EXSTDY" Value="12"/>
      <ItemData ItemOID="IT.EX.EXENDY" Value="12"/>
    </ItemGroupData>
    <ItemGroupData ItemGroupOID="IG.EX" data:ItemGroupDataSeq="13">
      <ItemData ItemOID="IT.EX.STUDYID" Value="CDISCPILOT01"/>
      <ItemData ItemOID="IT.EX.DOMAIN" Value="EX"/>
      <ItemData ItemOID="IT.EX.USUBJID" Value="CDISC001"/>
      <ItemData ItemOID="IT.EX.SPDEVID" Value="DEV0001"/>
      <ItemData ItemOID="IT.EX.EXSEQ" Value="13"/>
      <ItemData ItemOID="IT.EX.EXTRT" Value="ZANOMALINE"/>
      <ItemData ItemOID="IT.EX.EXDOSE" Value="54"/>
      <ItemData ItemOID="IT.EX.EXDOSU" Value="mg"/>
      <ItemData ItemOID="IT.EX.EXDOSFRM" Value="INJECTION"/>
      <ItemData ItemOID="IT.EX.EXDOSFRQ" Value="QD"/>
      <ItemData ItemOID="IT.EX.EXROUTE" Value="SUBCUTANEOUS"/>
      <ItemData ItemOID="IT.EX.EXLOT" Value="SDS580-359"/>
      <ItemData ItemOID="IT.EX.EPOCH" Value="TREATMENT"/>
      <ItemData ItemOID="IT.EX.EXSTDTC" Value="2012-12-12"/>
      <ItemData ItemOID="IT.EX.EXENDTC" Value="2012-12-12"/>
      <ItemData ItemOID="IT.EX.EXSTDY" Value="13"/>
      <ItemData ItemOID="IT.EX.EXENDY" Value="13"/>
    </ItemGroupData>
    <ItemGroupData ItemGroupOID="IG.EX" data:ItemGroupDataSeq="14">
      <ItemData ItemOID="IT.EX.STUDYID" Value="CDISCPILOT01"/>
      <ItemData ItemOID="IT.EX.DOMAIN" Value="EX"/>
      <ItemData ItemOID="IT.EX.USUBJID" Value="CDISC001"/>
      <ItemData ItemOID="IT.EX.SPDEVID" Value="DEV0001"/>
      <ItemData ItemOID="IT.EX.EXSEQ" Value="14"/>
      <ItemData ItemOID="IT.EX.EXTRT" Value="ZANOMALINE"/>
      <ItemData ItemOID="IT.EX.EXDOSE" Value="54"/>
      <ItemData ItemOID="IT.EX.EXDOSU" Value="mg"/>
      <ItemData ItemOID="IT.EX.EXDOSFRM" Value="INJECTION"/>
      <ItemData ItemOID="IT.EX.EXDOSFRQ" Value="QD"/>
      <ItemData ItemOID="IT.EX.EXROUTE" Value="SUBCUTANEOUS"/>
      <ItemData ItemOID="IT.EX.EXLOT" Value="SDS580-359"/>
      <ItemData ItemOID="IT.EX.EPOCH" Value="TREATMENT"/>
      <ItemData ItemOID="IT.EX.EXSTDTC" Value="2012-12-13"/>
      <ItemData ItemOID="IT.EX.EXENDTC" Value="2012-12-13"/>
      <ItemData ItemOID="IT.EX.EXSTDY" Value="14"/>
      <ItemData ItemOID="IT.EX.EXENDY" Value="14"/>
    </ItemGroupData>
    <ItemGroupData ItemGroupOID="IG.EX" data:ItemGroupDataSeq="15">
      <ItemData ItemOID="IT.EX.STUDYID" Value="CDISCPILOT01"/>
      <ItemData ItemOID="IT.EX.DOMAIN" Value="EX"/>
      <ItemData ItemOID="IT.EX.USUBJID" Value="CDISC001"/>
      <ItemData ItemOID="IT.EX.SPDEVID" Value="DEV0001"/>
      <ItemData ItemOID="IT.EX.EXSEQ" Value="15"/>
      <ItemData ItemOID="IT.EX.EXTRT" Value="ZANOMALINE"/>
      <ItemData ItemOID="IT.EX.EXDOSE" Value="54"/>
      <ItemData ItemOID="IT.EX.EXDOSU" Value="mg"/>
      <ItemData ItemOID="IT.EX.EXDOSFRM" Value="INJECTION"/>
      <ItemData ItemOID="IT.EX.EXDOSFRQ" Value="QD"/>
      <ItemData ItemOID="IT.EX.EXROUTE" Value="SUBCUTANEOUS"/>
      <ItemData ItemOID="IT.EX.EXLOT" Value="SDS580-359"/>
      <ItemData ItemOID="IT.EX.EPOCH" Value="TREATMENT"/>
      <ItemData ItemOID="IT.EX.EXSTDTC" Value="2012-12-14"/>
      <ItemData ItemOID="IT.EX.EXENDTC" Value="2012-12-14"/>
      <ItemData ItemOID="IT.EX.EXSTDY" Value="15"/>
      <ItemData ItemOID="IT.EX.EXENDY" Value="15"/>
    </ItemGroupData>
    <ItemGroupData ItemGroupOID="IG.EX" data:ItemGroupDataSeq="16">
      <ItemData ItemOID="IT.EX.STUDYID" Value="CDISCPILOT01"/>
      <ItemData ItemOID="IT.EX.DOMAIN" Value="EX"/>
      <ItemData ItemOID="IT.EX.USUBJID" Value="CDISC001"/>
      <ItemData ItemOID="IT.EX.SPDEVID" Value="DEV0001"/>
      <ItemData ItemOID="IT.EX.EXSEQ" Value="16"/>
      <ItemData ItemOID="IT.EX.EXTRT" Value="ZANOMALINE"/>
      <ItemData ItemOID="IT.EX.EXDOSE" Value="54"/>
      <ItemData ItemOID="IT.EX.EXDOSU" Value="mg"/>
      <ItemData ItemOID="IT.EX.EXDOSFRM" Value="INJECTION"/>
      <ItemData ItemOID="IT.EX.EXDOSFRQ" Value="QD"/>
      <ItemData ItemOID="IT.EX.EXROUTE" Value="SUBCUTANEOUS"/>
      <ItemData ItemOID="IT.EX.EXLOT" Value="SDS580-359"/>
      <ItemData ItemOID="IT.EX.EPOCH" Value="TREATMENT"/>
      <ItemData ItemOID="IT.EX.EXSTDTC" Value="2012-12-15"/>
      <ItemData ItemOID="IT.EX.EXENDTC" Value="2012-12-15"/>
      <ItemData ItemOID="IT.EX.EXSTDY" Value="16"/>
      <ItemData ItemOID="IT.EX.EXENDY" Value="16"/>
    </ItemGroupData>
    <ItemGroupData ItemGroupOID="IG.EX" data:ItemGroupDataSeq="17">
      <ItemData ItemOID="IT.EX.STUDYID" Value="CDISCPILOT01"/>
      <ItemData ItemOID="IT.EX.DOMAIN" Value="EX"/>
      <ItemData ItemOID="IT.EX.USUBJID" Value="CDISC001"/>
      <ItemData ItemOID="IT.EX.SPDEVID" Value="DEV0001"/>
      <ItemData ItemOID="IT.EX.EXSEQ" Value="17"/>
      <ItemData ItemOID="IT.EX.EXTRT" Value="ZANOMALINE"/>
      <ItemData ItemOID="IT.EX.EXDOSE" Value="54"/>
      <ItemData ItemOID="IT.EX.EXDOSU" Value="mg"/>
      <ItemData ItemOID="IT.EX.EXDOSFRM" Value="INJECTION"/>
      <ItemData ItemOID="IT.EX.EXDOSFRQ" Value="QD"/>
      <ItemData ItemOID="IT.EX.EXROUTE" Value="SUBCUTANEOUS"/>
      <ItemData ItemOID="IT.EX.EXLOT" Value="SDS580-359"/>
      <ItemData ItemOID="IT.EX.EPOCH" Value="TREATMENT"/>
      <ItemData ItemOID="IT.EX.EXSTDTC" Value="2012-12-16"/>
      <ItemData ItemOID="IT.EX.EXENDTC" Value="2012-12-16"/>
      <ItemData ItemOID="IT.EX.EXSTDY" Value="17"/>
      <ItemData ItemOID="IT.EX.EXENDY" Value="17"/>
    </ItemGroupData>
    <ItemGroupData ItemGroupOID="IG.EX" data:ItemGroupDataSeq="18">
      <ItemData ItemOID="IT.EX.STUDYID" Value="CDISCPILOT01"/>
      <ItemData ItemOID="IT.EX.DOMAIN" Value="EX"/>
      <ItemData ItemOID="IT.EX.USUBJID" Value="CDISC001"/>
      <ItemData ItemOID="IT.EX.SPDEVID" Value="DEV0001"/>
      <ItemData ItemOID="IT.EX.EXSEQ" Value="18"/>
      <ItemData ItemOID="IT.EX.EXTRT" Value="ZANOMALINE"/>
      <ItemData ItemOID="IT.EX.EXDOSE" Value="54"/>
      <ItemData ItemOID="IT.EX.EXDOSU" Value="mg"/>
      <ItemData ItemOID="IT.EX.EXDOSFRM" Value="INJECTION"/>
      <ItemData ItemOID="IT.EX.EXDOSFRQ" Value="QD"/>
      <ItemData ItemOID="IT.EX.EXROUTE" Value="SUBCUTANEOUS"/>
      <ItemData ItemOID="IT.EX.EXLOT" Value="SDS580-359"/>
      <ItemData ItemOID="IT.EX.EPOCH" Value="TREATMENT"/>
      <ItemData ItemOID="IT.EX.EXSTDTC" Value="2012-12-17"/>
      <ItemData ItemOID="IT.EX.EXENDTC" Value="2012-12-17"/>
      <ItemData ItemOID="IT.EX.EXSTDY" Value="18"/>
      <ItemData ItemOID="IT.EX.EXENDY" Value="18"/>
    </ItemGroupData>
    <ItemGroupData ItemGroupOID="IG.EX" data:ItemGroupDataSeq="19">
      <ItemData ItemOID="IT.EX.STUDYID" Value="CDISCPILOT01"/>
      <ItemData ItemOID="IT.EX.DOMAIN" Value="EX"/>
      <ItemData ItemOID="IT.EX.USUBJID" Value="CDISC001"/>
      <ItemData ItemOID="IT.EX.SPDEVID" Value="DEV0001"/>
      <ItemData ItemOID="IT.EX.EXSEQ" Value="19"/>
      <ItemData ItemOID="IT.EX.EXTRT" Value="ZANOMALINE"/>
      <ItemData ItemOID="IT.EX.EXDOSE" Value="54"/>
      <ItemData ItemOID="IT.EX.EXDOSU" Value="mg"/>
      <ItemData ItemOID="IT.EX.EXDOSFRM" Value="INJECTION"/>
      <ItemData ItemOID="IT.EX.EXDOSFRQ" Value="QD"/>
      <ItemData ItemOID="IT.EX.EXROUTE" Value="SUBCUTANEOUS"/>
      <ItemData ItemOID="IT.EX.EXLOT" Value="SDS580-359"/>
      <ItemData ItemOID="IT.EX.EPOCH" Value="TREATMENT"/>
      <ItemData ItemOID="IT.EX.EXSTDTC" Value="2012-12-18"/>
      <ItemData ItemOID="IT.EX.EXENDTC" Value="2012-12-18"/>
      <ItemData ItemOID="IT.EX.EXSTDY" Value="19"/>
      <ItemData ItemOID="IT.EX.EXENDY" Value="19"/>
    </ItemGroupData>
    <ItemGroupData ItemGroupOID="IG.EX" data:ItemGroupDataSeq="20">
      <ItemData ItemOID="IT.EX.STUDYID" Value="CDISCPILOT01"/>
      <ItemData ItemOID="IT.EX.DOMAIN" Value="EX"/>
      <ItemData ItemOID="IT.EX.USUBJID" Value="CDISC001"/>
      <ItemData ItemOID="IT.EX.SPDEVID" Value="DEV0001"/>
      <ItemData ItemOID="IT.EX.EXSEQ" Value="20"/>
      <ItemData ItemOID="IT.EX.EXTRT" Value="ZANOMALINE"/>
      <ItemData ItemOID="IT.EX.EXDOSE" Value="54"/>
      <ItemData ItemOID="IT.EX.EXDOSU" Value="mg"/>
      <ItemData ItemOID="IT.EX.EXDOSFRM" Value="INJECTION"/>
      <ItemData ItemOID="IT.EX.EXDOSFRQ" Value="QD"/>
      <ItemData ItemOID="IT.EX.EXROUTE" Value="SUBCUTANEOUS"/>
      <ItemData ItemOID="IT.EX.EXLOT" Value="SDS580-359"/>
      <ItemData ItemOID="IT.EX.EPOCH" Value="TREATMENT"/>
      <ItemData ItemOID="IT.EX.EXSTDTC" Value="2012-12-19"/>
      <ItemData ItemOID="IT.EX.EXENDTC" Value="2012-12-19"/>
      <ItemData ItemOID="IT.EX.EXSTDY" Value="20"/>
      <ItemData ItemOID="IT.EX.EXENDY" Value="20"/>
    </ItemGroupData>
    <ItemGroupData ItemGroupOID="IG.EX" data:ItemGroupDataSeq="21">
      <ItemData ItemOID="IT.EX.STUDYID" Value="CDISCPILOT01"/>
      <ItemData ItemOID="IT.EX.DOMAIN" Value="EX"/>
      <ItemData ItemOID="IT.EX.USUBJID" Value="CDISC001"/>
      <ItemData ItemOID="IT.EX.SPDEVID" Value="DEV0001"/>
      <ItemData ItemOID="IT.EX.EXSEQ" Value="21"/>
      <ItemData ItemOID="IT.EX.EXTRT" Value="ZANOMALINE"/>
      <ItemData ItemOID="IT.EX.EXDOSE" Value="54"/>
      <ItemData ItemOID="IT.EX.EXDOSU" Value="mg"/>
      <ItemData ItemOID="IT.EX.EXDOSFRM" Value="INJECTION"/>
      <ItemData ItemOID="IT.EX.EXDOSFRQ" Value="QD"/>
      <ItemData ItemOID="IT.EX.EXROUTE" Value="SUBCUTANEOUS"/>
      <ItemData ItemOID="IT.EX.EXLOT" Value="SDS580-359"/>
      <ItemData ItemOID="IT.EX.EPOCH" Value="TREATMENT"/>
      <ItemData ItemOID="IT.EX.EXSTDTC" Value="2012-12-20"/>
      <ItemData ItemOID="IT.EX.EXENDTC" Value="2012-12-20"/>
      <ItemData ItemOID="IT.EX.EXSTDY" Value="21"/>
      <ItemData ItemOID="IT.EX.EXENDY" Value="21"/>
    </ItemGroupData>
    <ItemGroupData ItemGroupOID="IG.EX" data:ItemGroupDataSeq="22">
      <ItemData ItemOID="IT.EX.STUDYID" Value="CDISCPILOT01"/>
      <ItemData ItemOID="IT.EX.DOMAIN" Value="EX"/>
      <ItemData ItemOID="IT.EX.USUBJID" Value="CDISC001"/>
      <ItemData ItemOID="IT.EX.SPDEVID" Value="DEV0001"/>
      <ItemData ItemOID="IT.EX.EXSEQ" Value="22"/>
      <ItemData ItemOID="IT.EX.EXTRT" Value="ZANOMALINE"/>
      <ItemData ItemOID="IT.EX.EXDOSE" Value="54"/>
      <ItemData ItemOID="IT.EX.EXDOSU" Value="mg"/>
      <ItemData ItemOID="IT.EX.EXDOSFRM" Value="INJECTION"/>
      <ItemData ItemOID="IT.EX.EXDOSFRQ" Value="QD"/>
      <ItemData ItemOID="IT.EX.EXROUTE" Value="SUBCUTANEOUS"/>
      <ItemData ItemOID="IT.EX.EXLOT" Value="SDS580-359"/>
      <ItemData ItemOID="IT.EX.EPOCH" Value="TREATMENT"/>
      <ItemData ItemOID="IT.EX.EXSTDTC" Value="2012-12-21"/>
      <ItemData ItemOID="IT.EX.EXENDTC" Value="2012-12-21"/>
      <ItemData ItemOID="IT.EX.EXSTDY" Value="22"/>
      <ItemData ItemOID="IT.EX.EXENDY" Value="22"/>
    </ItemGroupData>
    <ItemGroupData ItemGroupOID="IG.EX" data:ItemGroupDataSeq="23">
      <ItemData ItemOID="IT.EX.STUDYID" Value="CDISCPILOT01"/>
      <ItemData ItemOID="IT.EX.DOMAIN" Value="EX"/>
      <ItemData ItemOID="IT.EX.USUBJID" Value="CDISC001"/>
      <ItemData ItemOID="IT.EX.SPDEVID" Value="DEV0001"/>
      <ItemData ItemOID="IT.EX.EXSEQ" Value="23"/>
      <ItemData ItemOID="IT.EX.EXTRT" Value="ZANOMALINE"/>
      <ItemData ItemOID="IT.EX.EXDOSE" Value="54"/>
      <ItemData ItemOID="IT.EX.EXDOSU" Value="mg"/>
      <ItemData ItemOID="IT.EX.EXDOSFRM" Value="INJECTION"/>
      <ItemData ItemOID="IT.EX.EXDOSFRQ" Value="QD"/>
      <ItemData ItemOID="IT.EX.EXROUTE" Value="SUBCUTANEOUS"/>
      <ItemData ItemOID="IT.EX.EXLOT" Value="SDS580-359"/>
      <ItemData ItemOID="IT.EX.EPOCH" Value="TREATMENT"/>
      <ItemData ItemOID="IT.EX.EXSTDTC" Value="2012-12-22"/>
      <ItemData ItemOID="IT.EX.EXENDTC" Value="2012-12-22"/>
      <ItemData ItemOID="IT.EX.EXSTDY" Value="23"/>
      <ItemData ItemOID="IT.EX.EXENDY" Value="23"/>
    </ItemGroupData>
    <ItemGroupData ItemGroupOID="IG.EX" data:ItemGroupDataSeq="24">
      <ItemData ItemOID="IT.EX.STUDYID" Value="CDISCPILOT01"/>
      <ItemData ItemOID="IT.EX.DOMAIN" Value="EX"/>
      <ItemData ItemOID="IT.EX.USUBJID" Value="CDISC001"/>
      <ItemData ItemOID="IT.EX.SPDEVID" Value="DEV0001"/>
      <ItemData ItemOID="IT.EX.EXSEQ" Value="24"/>
      <ItemData ItemOID="IT.EX.EXTRT" Value="ZANOMALINE"/>
      <ItemData ItemOID="IT.EX.EXDOSE" Value="54"/>
      <ItemData ItemOID="IT.EX.EXDOSU" Value="mg"/>
      <ItemData ItemOID="IT.EX.EXDOSFRM" Value="INJECTION"/>
      <ItemData ItemOID="IT.EX.EXDOSFRQ" Value="QD"/>
      <ItemData ItemOID="IT.EX.EXROUTE" Value="SUBCUTANEOUS"/>
      <ItemData ItemOID="IT.EX.EXLOT" Value="SDS580-359"/>
      <ItemData ItemOID="IT.EX.EPOCH" Value="TREATMENT"/>
      <ItemData ItemOID="IT.EX.EXSTDTC" Value="2012-12-23"/>
      <ItemData ItemOID="IT.EX.EXENDTC" Value="2012-12-23"/>
      <ItemData ItemOID="IT.EX.EXSTDY" Value="24"/>
      <ItemData ItemOID="IT.EX.EXENDY" Value="24"/>
    </ItemGroupData>
    <ItemGroupData ItemGroupOID="IG.EX" data:ItemGroupDataSeq="25">
      <ItemData ItemOID="IT.EX.STUDYID" Value="CDISCPILOT01"/>
      <ItemData ItemOID="IT.EX.DOMAIN" Value="EX"/>
      <ItemData ItemOID="IT.EX.USUBJID" Value="CDISC001"/>
      <ItemData ItemOID="IT.EX.SPDEVID" Value="DEV0001"/>
      <ItemData ItemOID="IT.EX.EXSEQ" Value="25"/>
      <ItemData ItemOID="IT.EX.EXTRT" Value="ZANOMALINE"/>
      <ItemData ItemOID="IT.EX.EXDOSE" Value="54"/>
      <ItemData ItemOID="IT.EX.EXDOSU" Value="mg"/>
      <ItemData ItemOID="IT.EX.EXDOSFRM" Value="INJECTION"/>
      <ItemData ItemOID="IT.EX.EXDOSFRQ" Value="QD"/>
      <ItemData ItemOID="IT.EX.EXROUTE" Value="SUBCUTANEOUS"/>
      <ItemData ItemOID="IT.EX.EXLOT" Value="SDS580-359"/>
      <ItemData ItemOID="IT.EX.EPOCH" Value="TREATMENT"/>
      <ItemData ItemOID="IT.EX.EXSTDTC" Value="2012-12-24"/>
      <ItemData ItemOID="IT.EX.EXENDTC" Value="2012-12-24"/>
      <ItemData ItemOID="IT.EX.EXSTDY" Value="25"/>
      <ItemData ItemOID="IT.EX.EXENDY" Value="25"/>
    </ItemGroupData>
    <ItemGroupData ItemGroupOID="IG.EX" data:ItemGroupDataSeq="26">
      <ItemData ItemOID="IT.EX.STUDYID" Value="CDISCPILOT01"/>
      <ItemData ItemOID="IT.EX.DOMAIN" Value="EX"/>
      <ItemData ItemOID="IT.EX.USUBJID" Value="CDISC001"/>
      <ItemData ItemOID="IT.EX.SPDEVID" Value="DEV0001"/>
      <ItemData ItemOID="IT.EX.EXSEQ" Value="26"/>
      <ItemData ItemOID="IT.EX.EXTRT" Value="ZANOMALINE"/>
      <ItemData ItemOID="IT.EX.EXDOSE" Value="54"/>
      <ItemData ItemOID="IT.EX.EXDOSU" Value="mg"/>
      <ItemData ItemOID="IT.EX.EXDOSFRM" Value="INJECTION"/>
      <ItemData ItemOID="IT.EX.EXDOSFRQ" Value="QD"/>
      <ItemData ItemOID="IT.EX.EXROUTE" Value="SUBCUTANEOUS"/>
      <ItemData ItemOID="IT.EX.EXLOT" Value="SDS580-359"/>
      <ItemData ItemOID="IT.EX.EPOCH" Value="TREATMENT"/>
      <ItemData ItemOID="IT.EX.EXSTDTC" Value="2012-12-25"/>
      <ItemData ItemOID="IT.EX.EXENDTC" Value="2012-12-25"/>
      <ItemData ItemOID="IT.EX.EXSTDY" Value="26"/>
      <ItemData ItemOID="IT.EX.EXENDY" Value="26"/>
    </ItemGroupData>
    <ItemGroupData ItemGroupOID="IG.EX" data:ItemGroupDataSeq="27">
      <ItemData ItemOID="IT.EX.STUDYID" Value="CDISCPILOT01"/>
      <ItemData ItemOID="IT.EX.DOMAIN" Value="EX"/>
      <ItemData ItemOID="IT.EX.USUBJID" Value="CDISC001"/>
      <ItemData ItemOID="IT.EX.SPDEVID" Value="DEV0001"/>
      <ItemData ItemOID="IT.EX.EXSEQ" Value="27"/>
      <ItemData ItemOID="IT.EX.EXTRT" Value="ZANOMALINE"/>
      <ItemData ItemOID="IT.EX.EXDOSE" Value="54"/>
      <ItemData ItemOID="IT.EX.EXDOSU" Value="mg"/>
      <ItemData ItemOID="IT.EX.EXDOSFRM" Value="INJECTION"/>
      <ItemData ItemOID="IT.EX.EXDOSFRQ" Value="QD"/>
      <ItemData ItemOID="IT.EX.EXROUTE" Value="SUBCUTANEOUS"/>
      <ItemData ItemOID="IT.EX.EXLOT" Value="SDS580-359"/>
      <ItemData ItemOID="IT.EX.EPOCH" Value="TREATMENT"/>
      <ItemData ItemOID="IT.EX.EXSTDTC" Value="2012-12-26"/>
      <ItemData ItemOID="IT.EX.EXENDTC" Value="2012-12-26"/>
      <ItemData ItemOID="IT.EX.EXSTDY" Value="27"/>
      <ItemData ItemOID="IT.EX.EXENDY" Value="27"/>
    </ItemGroupData>
    <ItemGroupData ItemGroupOID="IG.EX" data:ItemGroupDataSeq="28">
      <ItemData ItemOID="IT.EX.STUDYID" Value="CDISCPILOT01"/>
      <ItemData ItemOID="IT.EX.DOMAIN" Value="EX"/>
      <ItemData ItemOID="IT.EX.USUBJID" Value="CDISC001"/>
      <ItemData ItemOID="IT.EX.SPDEVID" Value="DEV0001"/>
      <ItemData ItemOID="IT.EX.EXSEQ" Value="28"/>
      <ItemData ItemOID="IT.EX.EXTRT" Value="ZANOMALINE"/>
      <ItemData ItemOID="IT.EX.EXDOSE" Value="54"/>
      <ItemData ItemOID="IT.EX.EXDOSU" Value="mg"/>
      <ItemData ItemOID="IT.EX.EXDOSFRM" Value="INJECTION"/>
      <ItemData ItemOID="IT.EX.EXDOSFRQ" Value="QD"/>
      <ItemData ItemOID="IT.EX.EXROUTE" Value="SUBCUTANEOUS"/>
      <ItemData ItemOID="IT.EX.EXLOT" Value="SDS580-359"/>
      <ItemData ItemOID="IT.EX.EPOCH" Value="TREATMENT"/>
      <ItemData ItemOID="IT.EX.EXSTDTC" Value="2012-12-27"/>
      <ItemData ItemOID="IT.EX.EXENDTC" Value="2012-12-27"/>
      <ItemData ItemOID="IT.EX.EXSTDY" Value="28"/>
      <ItemData ItemOID="IT.EX.EXENDY" Value="28"/>
    </ItemGroupData>
    <ItemGroupData ItemGroupOID="IG.EX" data:ItemGroupDataSeq="29">
      <ItemData ItemOID="IT.EX.STUDYID" Value="CDISCPILOT01"/>
      <ItemData ItemOID="IT.EX.DOMAIN" Value="EX"/>
      <ItemData ItemOID="IT.EX.USUBJID" Value="CDISC001"/>
      <ItemData ItemOID="IT.EX.SPDEVID" Value="DEV0001"/>
      <ItemData ItemOID="IT.EX.EXSEQ" Value="29"/>
      <ItemData ItemOID="IT.EX.EXTRT" Value="ZANOMALINE"/>
      <ItemData ItemOID="IT.EX.EXDOSE" Value="54"/>
      <ItemData ItemOID="IT.EX.EXDOSU" Value="mg"/>
      <ItemData ItemOID="IT.EX.EXDOSFRM" Value="INJECTION"/>
      <ItemData ItemOID="IT.EX.EXDOSFRQ" Value="QD"/>
      <ItemData ItemOID="IT.EX.EXROUTE" Value="SUBCUTANEOUS"/>
      <ItemData ItemOID="IT.EX.EXLOT" Value="SDS580-359"/>
      <ItemData ItemOID="IT.EX.EPOCH" Value="TREATMENT"/>
      <ItemData ItemOID="IT.EX.EXSTDTC" Value="2012-12-28"/>
      <ItemData ItemOID="IT.EX.EXENDTC" Value="2012-12-28"/>
      <ItemData ItemOID="IT.EX.EXSTDY" Value="29"/>
      <ItemData ItemOID="IT.EX.EXENDY" Value="29"/>
    </ItemGroupData>
    <ItemGroupData ItemGroupOID="IG.EX" data:ItemGroupDataSeq="30">
      <ItemData ItemOID="IT.EX.STUDYID" Value="CDISCPILOT01"/>
      <ItemData ItemOID="IT.EX.DOMAIN" Value="EX"/>
      <ItemData ItemOID="IT.EX.USUBJID" Value="CDISC001"/>
      <ItemData ItemOID="IT.EX.SPDEVID" Value="DEV0001"/>
      <ItemData ItemOID="IT.EX.EXSEQ" Value="30"/>
      <ItemData ItemOID="IT.EX.EXTRT" Value="ZANOMALINE"/>
      <ItemData ItemOID="IT.EX.EXDOSE" Value="54"/>
      <ItemData ItemOID="IT.EX.EXDOSU" Value="mg"/>
      <ItemData ItemOID="IT.EX.EXDOSFRM" Value="INJECTION"/>
      <ItemData ItemOID="IT.EX.EXDOSFRQ" Value="QD"/>
      <ItemData ItemOID="IT.EX.EXROUTE" Value="SUBCUTANEOUS"/>
      <ItemData ItemOID="IT.EX.EXLOT" Value="SDS580-359"/>
      <ItemData ItemOID="IT.EX.EPOCH" Value="TREATMENT"/>
      <ItemData ItemOID="IT.EX.EXSTDTC" Value="2012-12-29"/>
      <ItemData ItemOID="IT.EX.EXENDTC" Value="2012-12-29"/>
      <ItemData ItemOID="IT.EX.EXSTDY" Value="30"/>
      <ItemData ItemOID="IT.EX.EXENDY" Value="30"/>
    </ItemGroupData>
    <ItemGroupData ItemGroupOID="IG.EX" data:ItemGroupDataSeq="31">
      <ItemData ItemOID="IT.EX.STUDYID" Value="CDISCPILOT01"/>
      <ItemData ItemOID="IT.EX.DOMAIN" Value="EX"/>
      <ItemData ItemOID="IT.EX.USUBJID" Value="CDISC001"/>
      <ItemData ItemOID="IT.EX.SPDEVID" Value="DEV0001"/>
      <ItemData ItemOID="IT.EX.EXSEQ" Value="31"/>
      <ItemData ItemOID="IT.EX.EXTRT" Value="ZANOMALINE"/>
      <ItemData ItemOID="IT.EX.EXDOSE" Value="54"/>
      <ItemData ItemOID="IT.EX.EXDOSU" Value="mg"/>
      <ItemData ItemOID="IT.EX.EXDOSFRM" Value="INJECTION"/>
      <ItemData ItemOID="IT.EX.EXDOSFRQ" Value="QD"/>
      <ItemData ItemOID="IT.EX.EXROUTE" Value="SUBCUTANEOUS"/>
      <ItemData ItemOID="IT.EX.EXLOT" Value="SDS580-359"/>
      <ItemData ItemOID="IT.EX.EPOCH" Value="TREATMENT"/>
      <ItemData ItemOID="IT.EX.EXSTDTC" Value="2012-12-30"/>
      <ItemData ItemOID="IT.EX.EXENDTC" Value="2012-12-30"/>
      <ItemData ItemOID="IT.EX.EXSTDY" Value="31"/>
      <ItemData ItemOID="IT.EX.EXENDY" Value="31"/>
    </ItemGroupData>
    <ItemGroupData ItemGroupOID="IG.EX" data:ItemGroupDataSeq="32">
      <ItemData ItemOID="IT.EX.STUDYID" Value="CDISCPILOT01"/>
      <ItemData ItemOID="IT.EX.DOMAIN" Value="EX"/>
      <ItemData ItemOID="IT.EX.USUBJID" Value="CDISC001"/>
      <ItemData ItemOID="IT.EX.SPDEVID" Value="DEV0001"/>
      <ItemData ItemOID="IT.EX.EXSEQ" Value="32"/>
      <ItemData ItemOID="IT.EX.EXTRT" Value="ZANOMALINE"/>
      <ItemData ItemOID="IT.EX.EXDOSE" Value="54"/>
      <ItemData ItemOID="IT.EX.EXDOSU" Value="mg"/>
      <ItemData ItemOID="IT.EX.EXDOSFRM" Value="INJECTION"/>
      <ItemData ItemOID="IT.EX.EXDOSFRQ" Value="QD"/>
      <ItemData ItemOID="IT.EX.EXROUTE" Value="SUBCUTANEOUS"/>
      <ItemData ItemOID="IT.EX.EXLOT" Value="SDS580-359"/>
      <ItemData ItemOID="IT.EX.EPOCH" Value="TREATMENT"/>
      <ItemData ItemOID="IT.EX.EXSTDTC" Value="2012-12-31"/>
      <ItemData ItemOID="IT.EX.EXENDTC" Value="2012-12-31"/>
      <ItemData ItemOID="IT.EX.EXSTDY" Value="32"/>
      <ItemData ItemOID="IT.EX.EXENDY" Value="32"/>
    </ItemGroupData>
    <ItemGroupData ItemGroupOID="IG.EX" data:ItemGroupDataSeq="33">
      <ItemData ItemOID="IT.EX.STUDYID" Value="CDISCPILOT01"/>
      <ItemData ItemOID="IT.EX.DOMAIN" Value="EX"/>
      <ItemData ItemOID="IT.EX.USUBJID" Value="CDISC001"/>
      <ItemData ItemOID="IT.EX.SPDEVID" Value="DEV0001"/>
      <ItemData ItemOID="IT.EX.EXSEQ" Value="33"/>
      <ItemData ItemOID="IT.EX.EXTRT" Value="ZANOMALINE"/>
      <ItemData ItemOID="IT.EX.EXDOSE" Value="54"/>
      <ItemData ItemOID="IT.EX.EXDOSU" Value="mg"/>
      <ItemData ItemOID="IT.EX.EXDOSFRM" Value="INJECTION"/>
      <ItemData ItemOID="IT.EX.EXDOSFRQ" Value="QD"/>
      <ItemData ItemOID="IT.EX.EXROUTE" Value="SUBCUTANEOUS"/>
      <ItemData ItemOID="IT.EX.EXLOT" Value="SDS580-359"/>
      <ItemData ItemOID="IT.EX.EPOCH" Value="TREATMENT"/>
      <ItemData ItemOID="IT.EX.EXSTDTC" Value="2013-01-01"/>
      <ItemData ItemOID="IT.EX.EXENDTC" Value="2013-01-01"/>
      <ItemData ItemOID="IT.EX.EXSTDY" Value="33"/>
      <ItemData ItemOID="IT.EX.EXENDY" Value="33"/>
    </ItemGroupData>
    <ItemGroupData ItemGroupOID="IG.EX" data:ItemGroupDataSeq="34">
      <ItemData ItemOID="IT.EX.STUDYID" Value="CDISCPILOT01"/>
      <ItemData ItemOID="IT.EX.DOMAIN" Value="EX"/>
      <ItemData ItemOID="IT.EX.USUBJID" Value="CDISC001"/>
      <ItemData ItemOID="IT.EX.SPDEVID" Value="DEV0001"/>
      <ItemData ItemOID="IT.EX.EXSEQ" Value="34"/>
      <ItemData ItemOID="IT.EX.EXTRT" Value="ZANOMALINE"/>
      <ItemData ItemOID="IT.EX.EXDOSE" Value="54"/>
      <ItemData ItemOID="IT.EX.EXDOSU" Value="mg"/>
      <ItemData ItemOID="IT.EX.EXDOSFRM" Value="INJECTION"/>
      <ItemData ItemOID="IT.EX.EXDOSFRQ" Value="QD"/>
      <ItemData ItemOID="IT.EX.EXROUTE" Value="SUBCUTANEOUS"/>
      <ItemData ItemOID="IT.EX.EXLOT" Value="SDS580-359"/>
      <ItemData ItemOID="IT.EX.EPOCH" Value="TREATMENT"/>
      <ItemData ItemOID="IT.EX.EXSTDTC" Value="2013-01-02"/>
      <ItemData ItemOID="IT.EX.EXENDTC" Value="2013-01-02"/>
      <ItemData ItemOID="IT.EX.EXSTDY" Value="34"/>
      <ItemData ItemOID="IT.EX.EXENDY" Value="34"/>
    </ItemGroupData>
    <ItemGroupData ItemGroupOID="IG.EX" data:ItemGroupDataSeq="35">
      <ItemData ItemOID="IT.EX.STUDYID" Value="CDISCPILOT01"/>
      <ItemData ItemOID="IT.EX.DOMAIN" Value="EX"/>
      <ItemData ItemOID="IT.EX.USUBJID" Value="CDISC001"/>
      <ItemData ItemOID="IT.EX.SPDEVID" Value="DEV0001"/>
      <ItemData ItemOID="IT.EX.EXSEQ" Value="35"/>
      <ItemData ItemOID="IT.EX.EXTRT" Value="ZANOMALINE"/>
      <ItemData ItemOID="IT.EX.EXDOSE" Value="54"/>
      <ItemData ItemOID="IT.EX.EXDOSU" Value="mg"/>
      <ItemData ItemOID="IT.EX.EXDOSFRM" Value="INJECTION"/>
      <ItemData ItemOID="IT.EX.EXDOSFRQ" Value="QD"/>
      <ItemData ItemOID="IT.EX.EXROUTE" Value="SUBCUTANEOUS"/>
      <ItemData ItemOID="IT.EX.EXLOT" Value="SDS580-359"/>
      <ItemData ItemOID="IT.EX.EPOCH" Value="TREATMENT"/>
      <ItemData ItemOID="IT.EX.EXSTDTC" Value="2013-01-03"/>
      <ItemData ItemOID="IT.EX.EXENDTC" Value="2013-01-03"/>
      <ItemData ItemOID="IT.EX.EXSTDY" Value="35"/>
      <ItemData ItemOID="IT.EX.EXENDY" Value="35"/>
    </ItemGroupData>
    <ItemGroupData ItemGroupOID="IG.EX" data:ItemGroupDataSeq="36">
      <ItemData ItemOID="IT.EX.STUDYID" Value="CDISCPILOT01"/>
      <ItemData ItemOID="IT.EX.DOMAIN" Value="EX"/>
      <ItemData ItemOID="IT.EX.USUBJID" Value="CDISC001"/>
      <ItemData ItemOID="IT.EX.SPDEVID" Value="DEV0001"/>
      <ItemData ItemOID="IT.EX.EXSEQ" Value="36"/>
      <ItemData ItemOID="IT.EX.EXTRT" Value="ZANOMALINE"/>
      <ItemData ItemOID="IT.EX.EXDOSE" Value="54"/>
      <ItemData ItemOID="IT.EX.EXDOSU" Value="mg"/>
      <ItemData ItemOID="IT.EX.EXDOSFRM" Value="INJECTION"/>
      <ItemData ItemOID="IT.EX.EXDOSFRQ" Value="QD"/>
      <ItemData ItemOID="IT.EX.EXROUTE" Value="SUBCUTANEOUS"/>
      <ItemData ItemOID="IT.EX.EXLOT" Value="SDS580-359"/>
      <ItemData ItemOID="IT.EX.EPOCH" Value="TREATMENT"/>
      <ItemData ItemOID="IT.EX.EXSTDTC" Value="2013-01-04"/>
      <ItemData ItemOID="IT.EX.EXENDTC" Value="2013-01-04"/>
      <ItemData ItemOID="IT.EX.EXSTDY" Value="36"/>
      <ItemData ItemOID="IT.EX.EXENDY" Value="36"/>
    </ItemGroupData>
    <ItemGroupData ItemGroupOID="IG.EX" data:ItemGroupDataSeq="37">
      <ItemData ItemOID="IT.EX.STUDYID" Value="CDISCPILOT01"/>
      <ItemData ItemOID="IT.EX.DOMAIN" Value="EX"/>
      <ItemData ItemOID="IT.EX.USUBJID" Value="CDISC001"/>
      <ItemData ItemOID="IT.EX.SPDEVID" Value="DEV0001"/>
      <ItemData ItemOID="IT.EX.EXSEQ" Value="37"/>
      <ItemData ItemOID="IT.EX.EXTRT" Value="ZANOMALINE"/>
      <ItemData ItemOID="IT.EX.EXDOSE" Value="54"/>
      <ItemData ItemOID="IT.EX.EXDOSU" Value="mg"/>
      <ItemData ItemOID="IT.EX.EXDOSFRM" Value="INJECTION"/>
      <ItemData ItemOID="IT.EX.EXDOSFRQ" Value="QD"/>
      <ItemData ItemOID="IT.EX.EXROUTE" Value="SUBCUTANEOUS"/>
      <ItemData ItemOID="IT.EX.EXLOT" Value="SDS580-359"/>
      <ItemData ItemOID="IT.EX.EPOCH" Value="TREATMENT"/>
      <ItemData ItemOID="IT.EX.EXSTDTC" Value="2013-01-05"/>
      <ItemData ItemOID="IT.EX.EXENDTC" Value="2013-01-05"/>
      <ItemData ItemOID="IT.EX.EXSTDY" Value="37"/>
      <ItemData ItemOID="IT.EX.EXENDY" Value="37"/>
    </ItemGroupData>
    <ItemGroupData ItemGroupOID="IG.EX" data:ItemGroupDataSeq="38">
      <ItemData ItemOID="IT.EX.STUDYID" Value="CDISCPILOT01"/>
      <ItemData ItemOID="IT.EX.DOMAIN" Value="EX"/>
      <ItemData ItemOID="IT.EX.USUBJID" Value="CDISC001"/>
      <ItemData ItemOID="IT.EX.SPDEVID" Value="DEV0001"/>
      <ItemData ItemOID="IT.EX.EXSEQ" Value="38"/>
      <ItemData ItemOID="IT.EX.EXTRT" Value="ZANOMALINE"/>
      <ItemData ItemOID="IT.EX.EXDOSE" Value="54"/>
      <ItemData ItemOID="IT.EX.EXDOSU" Value="mg"/>
      <ItemData ItemOID="IT.EX.EXDOSFRM" Value="INJECTION"/>
      <ItemData ItemOID="IT.EX.EXDOSFRQ" Value="QD"/>
      <ItemData ItemOID="IT.EX.EXROUTE" Value="SUBCUTANEOUS"/>
      <ItemData ItemOID="IT.EX.EXLOT" Value="SDS580-359"/>
      <ItemData ItemOID="IT.EX.EPOCH" Value="TREATMENT"/>
      <ItemData ItemOID="IT.EX.EXSTDTC" Value="2013-01-06"/>
      <ItemData ItemOID="IT.EX.EXENDTC" Value="2013-01-06"/>
      <ItemData ItemOID="IT.EX.EXSTDY" Value="38"/>
      <ItemData ItemOID="IT.EX.EXENDY" Value="38"/>
    </ItemGroupData>
    <ItemGroupData ItemGroupOID="IG.EX" data:ItemGroupDataSeq="39">
      <ItemData ItemOID="IT.EX.STUDYID" Value="CDISCPILOT01"/>
      <ItemData ItemOID="IT.EX.DOMAIN" Value="EX"/>
      <ItemData ItemOID="IT.EX.USUBJID" Value="CDISC001"/>
      <ItemData ItemOID="IT.EX.SPDEVID" Value="DEV0001"/>
      <ItemData ItemOID="IT.EX.EXSEQ" Value="39"/>
      <ItemData ItemOID="IT.EX.EXTRT" Value="ZANOMALINE"/>
      <ItemData ItemOID="IT.EX.EXDOSE" Value="54"/>
      <ItemData ItemOID="IT.EX.EXDOSU" Value="mg"/>
      <ItemData ItemOID="IT.EX.EXDOSFRM" Value="INJECTION"/>
      <ItemData ItemOID="IT.EX.EXDOSFRQ" Value="QD"/>
      <ItemData ItemOID="IT.EX.EXROUTE" Value="SUBCUTANEOUS"/>
      <ItemData ItemOID="IT.EX.EXLOT" Value="SDS580-359"/>
      <ItemData ItemOID="IT.EX.EPOCH" Value="TREATMENT"/>
      <ItemData ItemOID="IT.EX.EXSTDTC" Value="2013-01-07"/>
      <ItemData ItemOID="IT.EX.EXENDTC" Value="2013-01-07"/>
      <ItemData ItemOID="IT.EX.EXSTDY" Value="39"/>
      <ItemData ItemOID="IT.EX.EXENDY" Value="39"/>
    </ItemGroupData>
    <ItemGroupData ItemGroupOID="IG.EX" data:ItemGroupDataSeq="40">
      <ItemData ItemOID="IT.EX.STUDYID" Value="CDISCPILOT01"/>
      <ItemData ItemOID="IT.EX.DOMAIN" Value="EX"/>
      <ItemData ItemOID="IT.EX.USUBJID" Value="CDISC001"/>
      <ItemData ItemOID="IT.EX.SPDEVID" Value="DEV0001"/>
      <ItemData ItemOID="IT.EX.EXSEQ" Value="40"/>
      <ItemData ItemOID="IT.EX.EXTRT" Value="ZANOMALINE"/>
      <ItemData ItemOID="IT.EX.EXDOSE" Value="54"/>
      <ItemData ItemOID="IT.EX.EXDOSU" Value="mg"/>
      <ItemData ItemOID="IT.EX.EXDOSFRM" Value="INJECTION"/>
      <ItemData ItemOID="IT.EX.EXDOSFRQ" Value="QD"/>
      <ItemData ItemOID="IT.EX.EXROUTE" Value="SUBCUTANEOUS"/>
      <ItemData ItemOID="IT.EX.EXLOT" Value="SDS580-359"/>
      <ItemData ItemOID="IT.EX.EPOCH" Value="TREATMENT"/>
      <ItemData ItemOID="IT.EX.EXSTDTC" Value="2013-01-08"/>
      <ItemData ItemOID="IT.EX.EXENDTC" Value="2013-01-08"/>
      <ItemData ItemOID="IT.EX.EXSTDY" Value="40"/>
      <ItemData ItemOID="IT.EX.EXENDY" Value="40"/>
    </ItemGroupData>
    <ItemGroupData ItemGroupOID="IG.EX" data:ItemGroupDataSeq="41">
      <ItemData ItemOID="IT.EX.STUDYID" Value="CDISCPILOT01"/>
      <ItemData ItemOID="IT.EX.DOMAIN" Value="EX"/>
      <ItemData ItemOID="IT.EX.USUBJID" Value="CDISC001"/>
      <ItemData ItemOID="IT.EX.SPDEVID" Value="DEV0001"/>
      <ItemData ItemOID="IT.EX.EXSEQ" Value="41"/>
      <ItemData ItemOID="IT.EX.EXTRT" Value="ZANOMALINE"/>
      <ItemData ItemOID="IT.EX.EXDOSE" Value="54"/>
      <ItemData ItemOID="IT.EX.EXDOSU" Value="mg"/>
      <ItemData ItemOID="IT.EX.EXDOSFRM" Value="INJECTION"/>
      <ItemData ItemOID="IT.EX.EXDOSFRQ" Value="QD"/>
      <ItemData ItemOID="IT.EX.EXROUTE" Value="SUBCUTANEOUS"/>
      <ItemData ItemOID="IT.EX.EXLOT" Value="SDS580-359"/>
      <ItemData ItemOID="IT.EX.EPOCH" Value="TREATMENT"/>
      <ItemData ItemOID="IT.EX.EXSTDTC" Value="2013-01-09"/>
      <ItemData ItemOID="IT.EX.EXENDTC" Value="2013-01-09"/>
      <ItemData ItemOID="IT.EX.EXSTDY" Value="41"/>
      <ItemData ItemOID="IT.EX.EXENDY" Value="41"/>
    </ItemGroupData>
    <ItemGroupData ItemGroupOID="IG.EX" data:ItemGroupDataSeq="42">
      <ItemData ItemOID="IT.EX.STUDYID" Value="CDISCPILOT01"/>
      <ItemData ItemOID="IT.EX.DOMAIN" Value="EX"/>
      <ItemData ItemOID="IT.EX.USUBJID" Value="CDISC001"/>
      <ItemData ItemOID="IT.EX.SPDEVID" Value="DEV0001"/>
      <ItemData ItemOID="IT.EX.EXSEQ" Value="42"/>
      <ItemData ItemOID="IT.EX.EXTRT" Value="ZANOMALINE"/>
      <ItemData ItemOID="IT.EX.EXDOSE" Value="54"/>
      <ItemData ItemOID="IT.EX.EXDOSU" Value="mg"/>
      <ItemData ItemOID="IT.EX.EXDOSFRM" Value="INJECTION"/>
      <ItemData ItemOID="IT.EX.EXDOSFRQ" Value="QD"/>
      <ItemData ItemOID="IT.EX.EXROUTE" Value="SUBCUTANEOUS"/>
      <ItemData ItemOID="IT.EX.EXLOT" Value="SDS580-359"/>
      <ItemData ItemOID="IT.EX.EPOCH" Value="TREATMENT"/>
      <ItemData ItemOID="IT.EX.EXSTDTC" Value="2013-01-10"/>
      <ItemData ItemOID="IT.EX.EXENDTC" Value="2013-01-10"/>
      <ItemData ItemOID="IT.EX.EXSTDY" Value="42"/>
      <ItemData ItemOID="IT.EX.EXENDY" Value="42"/>
    </ItemGroupData>
    <ItemGroupData ItemGroupOID="IG.EX" data:ItemGroupDataSeq="43">
      <ItemData ItemOID="IT.EX.STUDYID" Value="CDISCPILOT01"/>
      <ItemData ItemOID="IT.EX.DOMAIN" Value="EX"/>
      <ItemData ItemOID="IT.EX.USUBJID" Value="CDISC001"/>
      <ItemData ItemOID="IT.EX.SPDEVID" Value="DEV0001"/>
      <ItemData ItemOID="IT.EX.EXSEQ" Value="43"/>
      <ItemData ItemOID="IT.EX.EXTRT" Value="ZANOMALINE"/>
      <ItemData ItemOID="IT.EX.EXDOSE" Value="54"/>
      <ItemData ItemOID="IT.EX.EXDOSU" Value="mg"/>
      <ItemData ItemOID="IT.EX.EXDOSFRM" Value="INJECTION"/>
      <ItemData ItemOID="IT.EX.EXDOSFRQ" Value="QD"/>
      <ItemData ItemOID="IT.EX.EXROUTE" Value="SUBCUTANEOUS"/>
      <ItemData ItemOID="IT.EX.EXLOT" Value="SDS580-359"/>
      <ItemData ItemOID="IT.EX.EPOCH" Value="TREATMENT"/>
      <ItemData ItemOID="IT.EX.EXSTDTC" Value="2013-01-11"/>
      <ItemData ItemOID="IT.EX.EXENDTC" Value="2013-01-11"/>
      <ItemData ItemOID="IT.EX.EXSTDY" Value="43"/>
      <ItemData ItemOID="IT.EX.EXENDY" Value="43"/>
    </ItemGroupData>
    <ItemGroupData ItemGroupOID="IG.EX" data:ItemGroupDataSeq="44">
      <ItemData ItemOID="IT.EX.STUDYID" Value="CDISCPILOT01"/>
      <ItemData ItemOID="IT.EX.DOMAIN" Value="EX"/>
      <ItemData ItemOID="IT.EX.USUBJID" Value="CDISC001"/>
      <ItemData ItemOID="IT.EX.SPDEVID" Value="DEV0001"/>
      <ItemData ItemOID="IT.EX.EXSEQ" Value="44"/>
      <ItemData ItemOID="IT.EX.EXTRT" Value="ZANOMALINE"/>
      <ItemData ItemOID="IT.EX.EXDOSE" Value="54"/>
      <ItemData ItemOID="IT.EX.EXDOSU" Value="mg"/>
      <ItemData ItemOID="IT.EX.EXDOSFRM" Value="INJECTION"/>
      <ItemData ItemOID="IT.EX.EXDOSFRQ" Value="QD"/>
      <ItemData ItemOID="IT.EX.EXROUTE" Value="SUBCUTANEOUS"/>
      <ItemData ItemOID="IT.EX.EXLOT" Value="SDS580-359"/>
      <ItemData ItemOID="IT.EX.EPOCH" Value="TREATMENT"/>
      <ItemData ItemOID="IT.EX.EXSTDTC" Value="2013-01-12"/>
      <ItemData ItemOID="IT.EX.EXENDTC" Value="2013-01-12"/>
      <ItemData ItemOID="IT.EX.EXSTDY" Value="44"/>
      <ItemData ItemOID="IT.EX.EXENDY" Value="44"/>
    </ItemGroupData>
    <ItemGroupData ItemGroupOID="IG.EX" data:ItemGroupDataSeq="45">
      <ItemData ItemOID="IT.EX.STUDYID" Value="CDISCPILOT01"/>
      <ItemData ItemOID="IT.EX.DOMAIN" Value="EX"/>
      <ItemData ItemOID="IT.EX.USUBJID" Value="CDISC001"/>
      <ItemData ItemOID="IT.EX.SPDEVID" Value="DEV0001"/>
      <ItemData ItemOID="IT.EX.EXSEQ" Value="45"/>
      <ItemData ItemOID="IT.EX.EXTRT" Value="ZANOMALINE"/>
      <ItemData ItemOID="IT.EX.EXDOSE" Value="54"/>
      <ItemData ItemOID="IT.EX.EXDOSU" Value="mg"/>
      <ItemData ItemOID="IT.EX.EXDOSFRM" Value="INJECTION"/>
      <ItemData ItemOID="IT.EX.EXDOSFRQ" Value="QD"/>
      <ItemData ItemOID="IT.EX.EXROUTE" Value="SUBCUTANEOUS"/>
      <ItemData ItemOID="IT.EX.EXLOT" Value="SDS580-359"/>
      <ItemData ItemOID="IT.EX.EPOCH" Value="TREATMENT"/>
      <ItemData ItemOID="IT.EX.EXSTDTC" Value="2013-01-13"/>
      <ItemData ItemOID="IT.EX.EXENDTC" Value="2013-01-13"/>
      <ItemData ItemOID="IT.EX.EXSTDY" Value="45"/>
      <ItemData ItemOID="IT.EX.EXENDY" Value="45"/>
    </ItemGroupData>
    <ItemGroupData ItemGroupOID="IG.EX" data:ItemGroupDataSeq="46">
      <ItemData ItemOID="IT.EX.STUDYID" Value="CDISCPILOT01"/>
      <ItemData ItemOID="IT.EX.DOMAIN" Value="EX"/>
      <ItemData ItemOID="IT.EX.USUBJID" Value="CDISC001"/>
      <ItemData ItemOID="IT.EX.SPDEVID" Value="DEV0001"/>
      <ItemData ItemOID="IT.EX.EXSEQ" Value="46"/>
      <ItemData ItemOID="IT.EX.EXTRT" Value="ZANOMALINE"/>
      <ItemData ItemOID="IT.EX.EXDOSE" Value="54"/>
      <ItemData ItemOID="IT.EX.EXDOSU" Value="mg"/>
      <ItemData ItemOID="IT.EX.EXDOSFRM" Value="INJECTION"/>
      <ItemData ItemOID="IT.EX.EXDOSFRQ" Value="QD"/>
      <ItemData ItemOID="IT.EX.EXROUTE" Value="SUBCUTANEOUS"/>
      <ItemData ItemOID="IT.EX.EXLOT" Value="SDS580-359"/>
      <ItemData ItemOID="IT.EX.EPOCH" Value="TREATMENT"/>
      <ItemData ItemOID="IT.EX.EXSTDTC" Value="2013-01-14"/>
      <ItemData ItemOID="IT.EX.EXENDTC" Value="2013-01-14"/>
      <ItemData ItemOID="IT.EX.EXSTDY" Value="46"/>
      <ItemData ItemOID="IT.EX.EXENDY" Value="46"/>
    </ItemGroupData>
    <ItemGroupData ItemGroupOID="IG.EX" data:ItemGroupDataSeq="47">
      <ItemData ItemOID="IT.EX.STUDYID" Value="CDISCPILOT01"/>
      <ItemData ItemOID="IT.EX.DOMAIN" Value="EX"/>
      <ItemData ItemOID="IT.EX.USUBJID" Value="CDISC001"/>
      <ItemData ItemOID="IT.EX.SPDEVID" Value="DEV0001"/>
      <ItemData ItemOID="IT.EX.EXSEQ" Value="47"/>
      <ItemData ItemOID="IT.EX.EXTRT" Value="ZANOMALINE"/>
      <ItemData ItemOID="IT.EX.EXDOSE" Value="54"/>
      <ItemData ItemOID="IT.EX.EXDOSU" Value="mg"/>
      <ItemData ItemOID="IT.EX.EXDOSFRM" Value="INJECTION"/>
      <ItemData ItemOID="IT.EX.EXDOSFRQ" Value="QD"/>
      <ItemData ItemOID="IT.EX.EXROUTE" Value="SUBCUTANEOUS"/>
      <ItemData ItemOID="IT.EX.EXLOT" Value="SDS580-359"/>
      <ItemData ItemOID="IT.EX.EPOCH" Value="TREATMENT"/>
      <ItemData ItemOID="IT.EX.EXSTDTC" Value="2013-01-15"/>
      <ItemData ItemOID="IT.EX.EXENDTC" Value="2013-01-15"/>
      <ItemData ItemOID="IT.EX.EXSTDY" Value="47"/>
      <ItemData ItemOID="IT.EX.EXENDY" Value="47"/>
    </ItemGroupData>
    <ItemGroupData ItemGroupOID="IG.EX" data:ItemGroupDataSeq="48">
      <ItemData ItemOID="IT.EX.STUDYID" Value="CDISCPILOT01"/>
      <ItemData ItemOID="IT.EX.DOMAIN" Value="EX"/>
      <ItemData ItemOID="IT.EX.USUBJID" Value="CDISC001"/>
      <ItemData ItemOID="IT.EX.SPDEVID" Value="DEV0001"/>
      <ItemData ItemOID="IT.EX.EXSEQ" Value="48"/>
      <ItemData ItemOID="IT.EX.EXTRT" Value="ZANOMALINE"/>
      <ItemData ItemOID="IT.EX.EXDOSE" Value="54"/>
      <ItemData ItemOID="IT.EX.EXDOSU" Value="mg"/>
      <ItemData ItemOID="IT.EX.EXDOSFRM" Value="INJECTION"/>
      <ItemData ItemOID="IT.EX.EXDOSFRQ" Value="QD"/>
      <ItemData ItemOID="IT.EX.EXROUTE" Value="SUBCUTANEOUS"/>
      <ItemData ItemOID="IT.EX.EXLOT" Value="SDS580-359"/>
      <ItemData ItemOID="IT.EX.EPOCH" Value="TREATMENT"/>
      <ItemData ItemOID="IT.EX.EXSTDTC" Value="2013-01-16"/>
      <ItemData ItemOID="IT.EX.EXENDTC" Value="2013-01-16"/>
      <ItemData ItemOID="IT.EX.EXSTDY" Value="48"/>
      <ItemData ItemOID="IT.EX.EXENDY" Value="48"/>
    </ItemGroupData>
    <ItemGroupData ItemGroupOID="IG.EX" data:ItemGroupDataSeq="49">
      <ItemData ItemOID="IT.EX.STUDYID" Value="CDISCPILOT01"/>
      <ItemData ItemOID="IT.EX.DOMAIN" Value="EX"/>
      <ItemData ItemOID="IT.EX.USUBJID" Value="CDISC001"/>
      <ItemData ItemOID="IT.EX.SPDEVID" Value="DEV0001"/>
      <ItemData ItemOID="IT.EX.EXSEQ" Value="49"/>
      <ItemData ItemOID="IT.EX.EXTRT" Value="ZANOMALINE"/>
      <ItemData ItemOID="IT.EX.EXDOSE" Value="54"/>
      <ItemData ItemOID="IT.EX.EXDOSU" Value="mg"/>
      <ItemData ItemOID="IT.EX.EXDOSFRM" Value="INJECTION"/>
      <ItemData ItemOID="IT.EX.EXDOSFRQ" Value="QD"/>
      <ItemData ItemOID="IT.EX.EXROUTE" Value="SUBCUTANEOUS"/>
      <ItemData ItemOID="IT.EX.EXLOT" Value="SDS580-359"/>
      <ItemData ItemOID="IT.EX.EPOCH" Value="TREATMENT"/>
      <ItemData ItemOID="IT.EX.EXSTDTC" Value="2013-01-17"/>
      <ItemData ItemOID="IT.EX.EXENDTC" Value="2013-01-17"/>
      <ItemData ItemOID="IT.EX.EXSTDY" Value="49"/>
      <ItemData ItemOID="IT.EX.EXENDY" Value="49"/>
    </ItemGroupData>
    <ItemGroupData ItemGroupOID="IG.EX" data:ItemGroupDataSeq="50">
      <ItemData ItemOID="IT.EX.STUDYID" Value="CDISCPILOT01"/>
      <ItemData ItemOID="IT.EX.DOMAIN" Value="EX"/>
      <ItemData ItemOID="IT.EX.USUBJID" Value="CDISC001"/>
      <ItemData ItemOID="IT.EX.SPDEVID" Value="DEV0001"/>
      <ItemData ItemOID="IT.EX.EXSEQ" Value="50"/>
      <ItemData ItemOID="IT.EX.EXTRT" Value="ZANOMALINE"/>
      <ItemData ItemOID="IT.EX.EXDOSE" Value="54"/>
      <ItemData ItemOID="IT.EX.EXDOSU" Value="mg"/>
      <ItemData ItemOID="IT.EX.EXDOSFRM" Value="INJECTION"/>
      <ItemData ItemOID="IT.EX.EXDOSFRQ" Value="QD"/>
      <ItemData ItemOID="IT.EX.EXROUTE" Value="SUBCUTANEOUS"/>
      <ItemData ItemOID="IT.EX.EXLOT" Value="SDS580-359"/>
      <ItemData ItemOID="IT.EX.EPOCH" Value="TREATMENT"/>
      <ItemData ItemOID="IT.EX.EXSTDTC" Value="2013-01-18"/>
      <ItemData ItemOID="IT.EX.EXENDTC" Value="2013-01-18"/>
      <ItemData ItemOID="IT.EX.EXSTDY" Value="50"/>
      <ItemData ItemOID="IT.EX.EXENDY" Value="50"/>
    </ItemGroupData>
    <ItemGroupData ItemGroupOID="IG.EX" data:ItemGroupDataSeq="51">
      <ItemData ItemOID="IT.EX.STUDYID" Value="CDISCPILOT01"/>
      <ItemData ItemOID="IT.EX.DOMAIN" Value="EX"/>
      <ItemData ItemOID="IT.EX.USUBJID" Value="CDISC001"/>
      <ItemData ItemOID="IT.EX.SPDEVID" Value="DEV0001"/>
      <ItemData ItemOID="IT.EX.EXSEQ" Value="51"/>
      <ItemData ItemOID="IT.EX.EXTRT" Value="ZANOMALINE"/>
      <ItemData ItemOID="IT.EX.EXDOSE" Value="54"/>
      <ItemData ItemOID="IT.EX.EXDOSU" Value="mg"/>
      <ItemData ItemOID="IT.EX.EXDOSFRM" Value="INJECTION"/>
      <ItemData ItemOID="IT.EX.EXDOSFRQ" Value="QD"/>
      <ItemData ItemOID="IT.EX.EXROUTE" Value="SUBCUTANEOUS"/>
      <ItemData ItemOID="IT.EX.EXLOT" Value="SDS580-359"/>
      <ItemData ItemOID="IT.EX.EPOCH" Value="TREATMENT"/>
      <ItemData ItemOID="IT.EX.EXSTDTC" Value="2013-01-19"/>
      <ItemData ItemOID="IT.EX.EXENDTC" Value="2013-01-19"/>
      <ItemData ItemOID="IT.EX.EXSTDY" Value="51"/>
      <ItemData ItemOID="IT.EX.EXENDY" Value="51"/>
    </ItemGroupData>
    <ItemGroupData ItemGroupOID="IG.EX" data:ItemGroupDataSeq="52">
      <ItemData ItemOID="IT.EX.STUDYID" Value="CDISCPILOT01"/>
      <ItemData ItemOID="IT.EX.DOMAIN" Value="EX"/>
      <ItemData ItemOID="IT.EX.USUBJID" Value="CDISC001"/>
      <ItemData ItemOID="IT.EX.SPDEVID" Value="DEV0001"/>
      <ItemData ItemOID="IT.EX.EXSEQ" Value="52"/>
      <ItemData ItemOID="IT.EX.EXTRT" Value="ZANOMALINE"/>
      <ItemData ItemOID="IT.EX.EXDOSE" Value="54"/>
      <ItemData ItemOID="IT.EX.EXDOSU" Value="mg"/>
      <ItemData ItemOID="IT.EX.EXDOSFRM" Value="INJECTION"/>
      <ItemData ItemOID="IT.EX.EXDOSFRQ" Value="QD"/>
      <ItemData ItemOID="IT.EX.EXROUTE" Value="SUBCUTANEOUS"/>
      <ItemData ItemOID="IT.EX.EXLOT" Value="SDS580-359"/>
      <ItemData ItemOID="IT.EX.EPOCH" Value="TREATMENT"/>
      <ItemData ItemOID="IT.EX.EXSTDTC" Value="2013-01-20"/>
      <ItemData ItemOID="IT.EX.EXENDTC" Value="2013-01-20"/>
      <ItemData ItemOID="IT.EX.EXSTDY" Value="52"/>
      <ItemData ItemOID="IT.EX.EXENDY" Value="52"/>
    </ItemGroupData>
    <ItemGroupData ItemGroupOID="IG.EX" data:ItemGroupDataSeq="53">
      <ItemData ItemOID="IT.EX.STUDYID" Value="CDISCPILOT01"/>
      <ItemData ItemOID="IT.EX.DOMAIN" Value="EX"/>
      <ItemData ItemOID="IT.EX.USUBJID" Value="CDISC001"/>
      <ItemData ItemOID="IT.EX.SPDEVID" Value="DEV0001"/>
      <ItemData ItemOID="IT.EX.EXSEQ" Value="53"/>
      <ItemData ItemOID="IT.EX.EXTRT" Value="ZANOMALINE"/>
      <ItemData ItemOID="IT.EX.EXDOSE" Value="54"/>
      <ItemData ItemOID="IT.EX.EXDOSU" Value="mg"/>
      <ItemData ItemOID="IT.EX.EXDOSFRM" Value="INJECTION"/>
      <ItemData ItemOID="IT.EX.EXDOSFRQ" Value="QD"/>
      <ItemData ItemOID="IT.EX.EXROUTE" Value="SUBCUTANEOUS"/>
      <ItemData ItemOID="IT.EX.EXLOT" Value="SDS580-359"/>
      <ItemData ItemOID="IT.EX.EPOCH" Value="TREATMENT"/>
      <ItemData ItemOID="IT.EX.EXSTDTC" Value="2013-01-21"/>
      <ItemData ItemOID="IT.EX.EXENDTC" Value="2013-01-21"/>
      <ItemData ItemOID="IT.EX.EXSTDY" Value="53"/>
      <ItemData ItemOID="IT.EX.EXENDY" Value="53"/>
    </ItemGroupData>
    <ItemGroupData ItemGroupOID="IG.EX" data:ItemGroupDataSeq="54">
      <ItemData ItemOID="IT.EX.STUDYID" Value="CDISCPILOT01"/>
      <ItemData ItemOID="IT.EX.DOMAIN" Value="EX"/>
      <ItemData ItemOID="IT.EX.USUBJID" Value="CDISC001"/>
      <ItemData ItemOID="IT.EX.SPDEVID" Value="DEV0001"/>
      <ItemData ItemOID="IT.EX.EXSEQ" Value="54"/>
      <ItemData ItemOID="IT.EX.EXTRT" Value="ZANOMALINE"/>
      <ItemData ItemOID="IT.EX.EXDOSE" Value="54"/>
      <ItemData ItemOID="IT.EX.EXDOSU" Value="mg"/>
      <ItemData ItemOID="IT.EX.EXDOSFRM" Value="INJECTION"/>
      <ItemData ItemOID="IT.EX.EXDOSFRQ" Value="QD"/>
      <ItemData ItemOID="IT.EX.EXROUTE" Value="SUBCUTANEOUS"/>
      <ItemData ItemOID="IT.EX.EXLOT" Value="SDS580-359"/>
      <ItemData ItemOID="IT.EX.EPOCH" Value="TREATMENT"/>
      <ItemData ItemOID="IT.EX.EXSTDTC" Value="2013-01-22"/>
      <ItemData ItemOID="IT.EX.EXENDTC" Value="2013-01-22"/>
      <ItemData ItemOID="IT.EX.EXSTDY" Value="54"/>
      <ItemData ItemOID="IT.EX.EXENDY" Value="54"/>
    </ItemGroupData>
    <ItemGroupData ItemGroupOID="IG.EX" data:ItemGroupDataSeq="55">
      <ItemData ItemOID="IT.EX.STUDYID" Value="CDISCPILOT01"/>
      <ItemData ItemOID="IT.EX.DOMAIN" Value="EX"/>
      <ItemData ItemOID="IT.EX.USUBJID" Value="CDISC001"/>
      <ItemData ItemOID="IT.EX.SPDEVID" Value="DEV0001"/>
      <ItemData ItemOID="IT.EX.EXSEQ" Value="55"/>
      <ItemData ItemOID="IT.EX.EXTRT" Value="ZANOMALINE"/>
      <ItemData ItemOID="IT.EX.EXDOSE" Value="54"/>
      <ItemData ItemOID="IT.EX.EXDOSU" Value="mg"/>
      <ItemData ItemOID="IT.EX.EXDOSFRM" Value="INJECTION"/>
      <ItemData ItemOID="IT.EX.EXDOSFRQ" Value="QD"/>
      <ItemData ItemOID="IT.EX.EXROUTE" Value="SUBCUTANEOUS"/>
      <ItemData ItemOID="IT.EX.EXLOT" Value="SDS580-359"/>
      <ItemData ItemOID="IT.EX.EPOCH" Value="TREATMENT"/>
      <ItemData ItemOID="IT.EX.EXSTDTC" Value="2013-01-23"/>
      <ItemData ItemOID="IT.EX.EXENDTC" Value="2013-01-23"/>
      <ItemData ItemOID="IT.EX.EXSTDY" Value="55"/>
      <ItemData ItemOID="IT.EX.EXENDY" Value="55"/>
    </ItemGroupData>
    <ItemGroupData ItemGroupOID="IG.EX" data:ItemGroupDataSeq="56">
      <ItemData ItemOID="IT.EX.STUDYID" Value="CDISCPILOT01"/>
      <ItemData ItemOID="IT.EX.DOMAIN" Value="EX"/>
      <ItemData ItemOID="IT.EX.USUBJID" Value="CDISC002"/>
      <ItemData ItemOID="IT.EX.SPDEVID" Value="DEV0002"/>
      <ItemData ItemOID="IT.EX.EXSEQ" Value="1"/>
      <ItemData ItemOID="IT.EX.EXTRT" Value="ZANOMALINE"/>
      <ItemData ItemOID="IT.EX.EXDOSE" Value="54"/>
      <ItemData ItemOID="IT.EX.EXDOSU" Value="mg"/>
      <ItemData ItemOID="IT.EX.EXDOSFRM" Value="INJECTION"/>
      <ItemData ItemOID="IT.EX.EXDOSFRQ" Value="QD"/>
      <ItemData ItemOID="IT.EX.EXROUTE" Value="SUBCUTANEOUS"/>
      <ItemData ItemOID="IT.EX.EXLOT" Value="SDS580-359"/>
      <ItemData ItemOID="IT.EX.EPOCH" Value="TREATMENT"/>
      <ItemData ItemOID="IT.EX.EXSTDTC" Value="2012-11-15"/>
      <ItemData ItemOID="IT.EX.EXENDTC" Value="2012-11-15"/>
      <ItemData ItemOID="IT.EX.EXSTDY" Value="1"/>
      <ItemData ItemOID="IT.EX.EXENDY" Value="1"/>
    </ItemGroupData>
    <ItemGroupData ItemGroupOID="IG.EX" data:ItemGroupDataSeq="57">
      <ItemData ItemOID="IT.EX.STUDYID" Value="CDISCPILOT01"/>
      <ItemData ItemOID="IT.EX.DOMAIN" Value="EX"/>
      <ItemData ItemOID="IT.EX.USUBJID" Value="CDISC002"/>
      <ItemData ItemOID="IT.EX.SPDEVID" Value="DEV0002"/>
      <ItemData ItemOID="IT.EX.EXSEQ" Value="2"/>
      <ItemData ItemOID="IT.EX.EXTRT" Value="ZANOMALINE"/>
      <ItemData ItemOID="IT.EX.EXDOSE" Value="54"/>
      <ItemData ItemOID="IT.EX.EXDOSU" Value="mg"/>
      <ItemData ItemOID="IT.EX.EXDOSFRM" Value="INJECTION"/>
      <ItemData ItemOID="IT.EX.EXDOSFRQ" Value="QD"/>
      <ItemData ItemOID="IT.EX.EXROUTE" Value="SUBCUTANEOUS"/>
      <ItemData ItemOID="IT.EX.EXLOT" Value="SDS580-359"/>
      <ItemData ItemOID="IT.EX.EPOCH" Value="TREATMENT"/>
      <ItemData ItemOID="IT.EX.EXSTDTC" Value="2012-11-16"/>
      <ItemData ItemOID="IT.EX.EXENDTC" Value="2012-11-16"/>
      <ItemData ItemOID="IT.EX.EXSTDY" Value="2"/>
      <ItemData ItemOID="IT.EX.EXENDY" Value="2"/>
    </ItemGroupData>
    <ItemGroupData ItemGroupOID="IG.EX" data:ItemGroupDataSeq="58">
      <ItemData ItemOID="IT.EX.STUDYID" Value="CDISCPILOT01"/>
      <ItemData ItemOID="IT.EX.DOMAIN" Value="EX"/>
      <ItemData ItemOID="IT.EX.USUBJID" Value="CDISC002"/>
      <ItemData ItemOID="IT.EX.SPDEVID" Value="DEV0002"/>
      <ItemData ItemOID="IT.EX.EXSEQ" Value="3"/>
      <ItemData ItemOID="IT.EX.EXTRT" Value="ZANOMALINE"/>
      <ItemData ItemOID="IT.EX.EXDOSE" Value="54"/>
      <ItemData ItemOID="IT.EX.EXDOSU" Value="mg"/>
      <ItemData ItemOID="IT.EX.EXDOSFRM" Value="INJECTION"/>
      <ItemData ItemOID="IT.EX.EXDOSFRQ" Value="QD"/>
      <ItemData ItemOID="IT.EX.EXROUTE" Value="SUBCUTANEOUS"/>
      <ItemData ItemOID="IT.EX.EXLOT" Value="SDS580-359"/>
      <ItemData ItemOID="IT.EX.EPOCH" Value="TREATMENT"/>
      <ItemData ItemOID="IT.EX.EXSTDTC" Value="2012-11-17"/>
      <ItemData ItemOID="IT.EX.EXENDTC" Value="2012-11-17"/>
      <ItemData ItemOID="IT.EX.EXSTDY" Value="3"/>
      <ItemData ItemOID="IT.EX.EXENDY" Value="3"/>
    </ItemGroupData>
    <ItemGroupData ItemGroupOID="IG.EX" data:ItemGroupDataSeq="59">
      <ItemData ItemOID="IT.EX.STUDYID" Value="CDISCPILOT01"/>
      <ItemData ItemOID="IT.EX.DOMAIN" Value="EX"/>
      <ItemData ItemOID="IT.EX.USUBJID" Value="CDISC002"/>
      <ItemData ItemOID="IT.EX.SPDEVID" Value="DEV0002"/>
      <ItemData ItemOID="IT.EX.EXSEQ" Value="4"/>
      <ItemData ItemOID="IT.EX.EXTRT" Value="ZANOMALINE"/>
      <ItemData ItemOID="IT.EX.EXDOSE" Value="54"/>
      <ItemData ItemOID="IT.EX.EXDOSU" Value="mg"/>
      <ItemData ItemOID="IT.EX.EXDOSFRM" Value="INJECTION"/>
      <ItemData ItemOID="IT.EX.EXDOSFRQ" Value="QD"/>
      <ItemData ItemOID="IT.EX.EXROUTE" Value="SUBCUTANEOUS"/>
      <ItemData ItemOID="IT.EX.EXLOT" Value="SDS580-359"/>
      <ItemData ItemOID="IT.EX.EPOCH" Value="TREATMENT"/>
      <ItemData ItemOID="IT.EX.EXSTDTC" Value="2012-11-18"/>
      <ItemData ItemOID="IT.EX.EXENDTC" Value="2012-11-18"/>
      <ItemData ItemOID="IT.EX.EXSTDY" Value="4"/>
      <ItemData ItemOID="IT.EX.EXENDY" Value="4"/>
    </ItemGroupData>
    <ItemGroupData ItemGroupOID="IG.EX" data:ItemGroupDataSeq="60">
      <ItemData ItemOID="IT.EX.STUDYID" Value="CDISCPILOT01"/>
      <ItemData ItemOID="IT.EX.DOMAIN" Value="EX"/>
      <ItemData ItemOID="IT.EX.USUBJID" Value="CDISC002"/>
      <ItemData ItemOID="IT.EX.SPDEVID" Value="DEV0002"/>
      <ItemData ItemOID="IT.EX.EXSEQ" Value="5"/>
      <ItemData ItemOID="IT.EX.EXTRT" Value="ZANOMALINE"/>
      <ItemData ItemOID="IT.EX.EXDOSE" Value="54"/>
      <ItemData ItemOID="IT.EX.EXDOSU" Value="mg"/>
      <ItemData ItemOID="IT.EX.EXDOSFRM" Value="INJECTION"/>
      <ItemData ItemOID="IT.EX.EXDOSFRQ" Value="QD"/>
      <ItemData ItemOID="IT.EX.EXROUTE" Value="SUBCUTANEOUS"/>
      <ItemData ItemOID="IT.EX.EXLOT" Value="SDS580-359"/>
      <ItemData ItemOID="IT.EX.EPOCH" Value="TREATMENT"/>
      <ItemData ItemOID="IT.EX.EXSTDTC" Value="2012-11-19"/>
      <ItemData ItemOID="IT.EX.EXENDTC" Value="2012-11-19"/>
      <ItemData ItemOID="IT.EX.EXSTDY" Value="5"/>
      <ItemData ItemOID="IT.EX.EXENDY" Value="5"/>
    </ItemGroupData>
    <ItemGroupData ItemGroupOID="IG.EX" data:ItemGroupDataSeq="61">
      <ItemData ItemOID="IT.EX.STUDYID" Value="CDISCPILOT01"/>
      <ItemData ItemOID="IT.EX.DOMAIN" Value="EX"/>
      <ItemData ItemOID="IT.EX.USUBJID" Value="CDISC002"/>
      <ItemData ItemOID="IT.EX.SPDEVID" Value="DEV0002"/>
      <ItemData ItemOID="IT.EX.EXSEQ" Value="6"/>
      <ItemData ItemOID="IT.EX.EXTRT" Value="ZANOMALINE"/>
      <ItemData ItemOID="IT.EX.EXDOSE" Value="54"/>
      <ItemData ItemOID="IT.EX.EXDOSU" Value="mg"/>
      <ItemData ItemOID="IT.EX.EXDOSFRM" Value="INJECTION"/>
      <ItemData ItemOID="IT.EX.EXDOSFRQ" Value="QD"/>
      <ItemData ItemOID="IT.EX.EXROUTE" Value="SUBCUTANEOUS"/>
      <ItemData ItemOID="IT.EX.EXLOT" Value="SDS580-359"/>
      <ItemData ItemOID="IT.EX.EPOCH" Value="TREATMENT"/>
      <ItemData ItemOID="IT.EX.EXSTDTC" Value="2012-11-20"/>
      <ItemData ItemOID="IT.EX.EXENDTC" Value="2012-11-20"/>
      <ItemData ItemOID="IT.EX.EXSTDY" Value="6"/>
      <ItemData ItemOID="IT.EX.EXENDY" Value="6"/>
    </ItemGroupData>
    <ItemGroupData ItemGroupOID="IG.EX" data:ItemGroupDataSeq="62">
      <ItemData ItemOID="IT.EX.STUDYID" Value="CDISCPILOT01"/>
      <ItemData ItemOID="IT.EX.DOMAIN" Value="EX"/>
      <ItemData ItemOID="IT.EX.USUBJID" Value="CDISC002"/>
      <ItemData ItemOID="IT.EX.SPDEVID" Value="DEV0002"/>
      <ItemData ItemOID="IT.EX.EXSEQ" Value="7"/>
      <ItemData ItemOID="IT.EX.EXTRT" Value="ZANOMALINE"/>
      <ItemData ItemOID="IT.EX.EXDOSE" Value="54"/>
      <ItemData ItemOID="IT.EX.EXDOSU" Value="mg"/>
      <ItemData ItemOID="IT.EX.EXDOSFRM" Value="INJECTION"/>
      <ItemData ItemOID="IT.EX.EXDOSFRQ" Value="QD"/>
      <ItemData ItemOID="IT.EX.EXROUTE" Value="SUBCUTANEOUS"/>
      <ItemData ItemOID="IT.EX.EXLOT" Value="SDS580-359"/>
      <ItemData ItemOID="IT.EX.EPOCH" Value="TREATMENT"/>
      <ItemData ItemOID="IT.EX.EXSTDTC" Value="2012-11-21"/>
      <ItemData ItemOID="IT.EX.EXENDTC" Value="2012-11-21"/>
      <ItemData ItemOID="IT.EX.EXSTDY" Value="7"/>
      <ItemData ItemOID="IT.EX.EXENDY" Value="7"/>
    </ItemGroupData>
    <ItemGroupData ItemGroupOID="IG.EX" data:ItemGroupDataSeq="63">
      <ItemData ItemOID="IT.EX.STUDYID" Value="CDISCPILOT01"/>
      <ItemData ItemOID="IT.EX.DOMAIN" Value="EX"/>
      <ItemData ItemOID="IT.EX.USUBJID" Value="CDISC002"/>
      <ItemData ItemOID="IT.EX.SPDEVID" Value="DEV0002"/>
      <ItemData ItemOID="IT.EX.EXSEQ" Value="8"/>
      <ItemData ItemOID="IT.EX.EXTRT" Value="ZANOMALINE"/>
      <ItemData ItemOID="IT.EX.EXDOSE" Value="54"/>
      <ItemData ItemOID="IT.EX.EXDOSU" Value="mg"/>
      <ItemData ItemOID="IT.EX.EXDOSFRM" Value="INJECTION"/>
      <ItemData ItemOID="IT.EX.EXDOSFRQ" Value="QD"/>
      <ItemData ItemOID="IT.EX.EXROUTE" Value="SUBCUTANEOUS"/>
      <ItemData ItemOID="IT.EX.EXLOT" Value="SDS580-359"/>
      <ItemData ItemOID="IT.EX.EPOCH" Value="TREATMENT"/>
      <ItemData ItemOID="IT.EX.EXSTDTC" Value="2012-11-22"/>
      <ItemData ItemOID="IT.EX.EXENDTC" Value="2012-11-22"/>
      <ItemData ItemOID="IT.EX.EXSTDY" Value="8"/>
      <ItemData ItemOID="IT.EX.EXENDY" Value="8"/>
    </ItemGroupData>
    <ItemGroupData ItemGroupOID="IG.EX" data:ItemGroupDataSeq="64">
      <ItemData ItemOID="IT.EX.STUDYID" Value="CDISCPILOT01"/>
      <ItemData ItemOID="IT.EX.DOMAIN" Value="EX"/>
      <ItemData ItemOID="IT.EX.USUBJID" Value="CDISC002"/>
      <ItemData ItemOID="IT.EX.SPDEVID" Value="DEV0002"/>
      <ItemData ItemOID="IT.EX.EXSEQ" Value="9"/>
      <ItemData ItemOID="IT.EX.EXTRT" Value="ZANOMALINE"/>
      <ItemData ItemOID="IT.EX.EXDOSE" Value="54"/>
      <ItemData ItemOID="IT.EX.EXDOSU" Value="mg"/>
      <ItemData ItemOID="IT.EX.EXDOSFRM" Value="INJECTION"/>
      <ItemData ItemOID="IT.EX.EXDOSFRQ" Value="QD"/>
      <ItemData ItemOID="IT.EX.EXROUTE" Value="SUBCUTANEOUS"/>
      <ItemData ItemOID="IT.EX.EXLOT" Value="SDS580-359"/>
      <ItemData ItemOID="IT.EX.EPOCH" Value="TREATMENT"/>
      <ItemData ItemOID="IT.EX.EXSTDTC" Value="2012-11-23"/>
      <ItemData ItemOID="IT.EX.EXENDTC" Value="2012-11-23"/>
      <ItemData ItemOID="IT.EX.EXSTDY" Value="9"/>
      <ItemData ItemOID="IT.EX.EXENDY" Value="9"/>
    </ItemGroupData>
    <ItemGroupData ItemGroupOID="IG.EX" data:ItemGroupDataSeq="65">
      <ItemData ItemOID="IT.EX.STUDYID" Value="CDISCPILOT01"/>
      <ItemData ItemOID="IT.EX.DOMAIN" Value="EX"/>
      <ItemData ItemOID="IT.EX.USUBJID" Value="CDISC002"/>
      <ItemData ItemOID="IT.EX.SPDEVID" Value="DEV0002"/>
      <ItemData ItemOID="IT.EX.EXSEQ" Value="10"/>
      <ItemData ItemOID="IT.EX.EXTRT" Value="ZANOMALINE"/>
      <ItemData ItemOID="IT.EX.EXDOSE" Value="54"/>
      <ItemData ItemOID="IT.EX.EXDOSU" Value="mg"/>
      <ItemData ItemOID="IT.EX.EXDOSFRM" Value="INJECTION"/>
      <ItemData ItemOID="IT.EX.EXDOSFRQ" Value="QD"/>
      <ItemData ItemOID="IT.EX.EXROUTE" Value="SUBCUTANEOUS"/>
      <ItemData ItemOID="IT.EX.EXLOT" Value="SDS580-359"/>
      <ItemData ItemOID="IT.EX.EPOCH" Value="TREATMENT"/>
      <ItemData ItemOID="IT.EX.EXSTDTC" Value="2012-11-24"/>
      <ItemData ItemOID="IT.EX.EXENDTC" Value="2012-11-24"/>
      <ItemData ItemOID="IT.EX.EXSTDY" Value="10"/>
      <ItemData ItemOID="IT.EX.EXENDY" Value="10"/>
    </ItemGroupData>
    <ItemGroupData ItemGroupOID="IG.EX" data:ItemGroupDataSeq="66">
      <ItemData ItemOID="IT.EX.STUDYID" Value="CDISCPILOT01"/>
      <ItemData ItemOID="IT.EX.DOMAIN" Value="EX"/>
      <ItemData ItemOID="IT.EX.USUBJID" Value="CDISC002"/>
      <ItemData ItemOID="IT.EX.SPDEVID" Value="DEV0002"/>
      <ItemData ItemOID="IT.EX.EXSEQ" Value="11"/>
      <ItemData ItemOID="IT.EX.EXTRT" Value="ZANOMALINE"/>
      <ItemData ItemOID="IT.EX.EXDOSE" Value="54"/>
      <ItemData ItemOID="IT.EX.EXDOSU" Value="mg"/>
      <ItemData ItemOID="IT.EX.EXDOSFRM" Value="INJECTION"/>
      <ItemData ItemOID="IT.EX.EXDOSFRQ" Value="QD"/>
      <ItemData ItemOID="IT.EX.EXROUTE" Value="SUBCUTANEOUS"/>
      <ItemData ItemOID="IT.EX.EXLOT" Value="SDS580-359"/>
      <ItemData ItemOID="IT.EX.EPOCH" Value="TREATMENT"/>
      <ItemData ItemOID="IT.EX.EXSTDTC" Value="2012-11-25"/>
      <ItemData ItemOID="IT.EX.EXENDTC" Value="2012-11-25"/>
      <ItemData ItemOID="IT.EX.EXSTDY" Value="11"/>
      <ItemData ItemOID="IT.EX.EXENDY" Value="11"/>
    </ItemGroupData>
    <ItemGroupData ItemGroupOID="IG.EX" data:ItemGroupDataSeq="67">
      <ItemData ItemOID="IT.EX.STUDYID" Value="CDISCPILOT01"/>
      <ItemData ItemOID="IT.EX.DOMAIN" Value="EX"/>
      <ItemData ItemOID="IT.EX.USUBJID" Value="CDISC002"/>
      <ItemData ItemOID="IT.EX.SPDEVID" Value="DEV0002"/>
      <ItemData ItemOID="IT.EX.EXSEQ" Value="12"/>
      <ItemData ItemOID="IT.EX.EXTRT" Value="ZANOMALINE"/>
      <ItemData ItemOID="IT.EX.EXDOSE" Value="54"/>
      <ItemData ItemOID="IT.EX.EXDOSU" Value="mg"/>
      <ItemData ItemOID="IT.EX.EXDOSFRM" Value="INJECTION"/>
      <ItemData ItemOID="IT.EX.EXDOSFRQ" Value="QD"/>
      <ItemData ItemOID="IT.EX.EXROUTE" Value="SUBCUTANEOUS"/>
      <ItemData ItemOID="IT.EX.EXLOT" Value="SDS580-359"/>
      <ItemData ItemOID="IT.EX.EPOCH" Value="TREATMENT"/>
      <ItemData ItemOID="IT.EX.EXSTDTC" Value="2012-11-26"/>
      <ItemData ItemOID="IT.EX.EXENDTC" Value="2012-11-26"/>
      <ItemData ItemOID="IT.EX.EXSTDY" Value="12"/>
      <ItemData ItemOID="IT.EX.EXENDY" Value="12"/>
    </ItemGroupData>
    <ItemGroupData ItemGroupOID="IG.EX" data:ItemGroupDataSeq="68">
      <ItemData ItemOID="IT.EX.STUDYID" Value="CDISCPILOT01"/>
      <ItemData ItemOID="IT.EX.DOMAIN" Value="EX"/>
      <ItemData ItemOID="IT.EX.USUBJID" Value="CDISC002"/>
      <ItemData ItemOID="IT.EX.SPDEVID" Value="DEV0002"/>
      <ItemData ItemOID="IT.EX.EXSEQ" Value="13"/>
      <ItemData ItemOID="IT.EX.EXTRT" Value="ZANOMALINE"/>
      <ItemData ItemOID="IT.EX.EXDOSE" Value="54"/>
      <ItemData ItemOID="IT.EX.EXDOSU" Value="mg"/>
      <ItemData ItemOID="IT.EX.EXDOSFRM" Value="INJECTION"/>
      <ItemData ItemOID="IT.EX.EXDOSFRQ" Value="QD"/>
      <ItemData ItemOID="IT.EX.EXROUTE" Value="SUBCUTANEOUS"/>
      <ItemData ItemOID="IT.EX.EXLOT" Value="SDS580-359"/>
      <ItemData ItemOID="IT.EX.EPOCH" Value="TREATMENT"/>
      <ItemData ItemOID="IT.EX.EXSTDTC" Value="2012-11-27"/>
      <ItemData ItemOID="IT.EX.EXENDTC" Value="2012-11-27"/>
      <ItemData ItemOID="IT.EX.EXSTDY" Value="13"/>
      <ItemData ItemOID="IT.EX.EXENDY" Value="13"/>
    </ItemGroupData>
    <ItemGroupData ItemGroupOID="IG.EX" data:ItemGroupDataSeq="69">
      <ItemData ItemOID="IT.EX.STUDYID" Value="CDISCPILOT01"/>
      <ItemData ItemOID="IT.EX.DOMAIN" Value="EX"/>
      <ItemData ItemOID="IT.EX.USUBJID" Value="CDISC002"/>
      <ItemData ItemOID="IT.EX.SPDEVID" Value="DEV0002"/>
      <ItemData ItemOID="IT.EX.EXSEQ" Value="14"/>
      <ItemData ItemOID="IT.EX.EXTRT" Value="ZANOMALINE"/>
      <ItemData ItemOID="IT.EX.EXDOSE" Value="54"/>
      <ItemData ItemOID="IT.EX.EXDOSU" Value="mg"/>
      <ItemData ItemOID="IT.EX.EXDOSFRM" Value="INJECTION"/>
      <ItemData ItemOID="IT.EX.EXDOSFRQ" Value="QD"/>
      <ItemData ItemOID="IT.EX.EXROUTE" Value="SUBCUTANEOUS"/>
      <ItemData ItemOID="IT.EX.EXLOT" Value="SDS580-359"/>
      <ItemData ItemOID="IT.EX.EPOCH" Value="TREATMENT"/>
      <ItemData ItemOID="IT.EX.EXSTDTC" Value="2012-11-28"/>
      <ItemData ItemOID="IT.EX.EXENDTC" Value="2012-11-28"/>
      <ItemData ItemOID="IT.EX.EXSTDY" Value="14"/>
      <ItemData ItemOID="IT.EX.EXENDY" Value="14"/>
    </ItemGroupData>
    <ItemGroupData ItemGroupOID="IG.EX" data:ItemGroupDataSeq="70">
      <ItemData ItemOID="IT.EX.STUDYID" Value="CDISCPILOT01"/>
      <ItemData ItemOID="IT.EX.DOMAIN" Value="EX"/>
      <ItemData ItemOID="IT.EX.USUBJID" Value="CDISC002"/>
      <ItemData ItemOID="IT.EX.SPDEVID" Value="DEV0002"/>
      <ItemData ItemOID="IT.EX.EXSEQ" Value="15"/>
      <ItemData ItemOID="IT.EX.EXTRT" Value="ZANOMALINE"/>
      <ItemData ItemOID="IT.EX.EXDOSE" Value="54"/>
      <ItemData ItemOID="IT.EX.EXDOSU" Value="mg"/>
      <ItemData ItemOID="IT.EX.EXDOSFRM" Value="INJECTION"/>
      <ItemData ItemOID="IT.EX.EXDOSFRQ" Value="QD"/>
      <ItemData ItemOID="IT.EX.EXROUTE" Value="SUBCUTANEOUS"/>
      <ItemData ItemOID="IT.EX.EXLOT" Value="SDS580-359"/>
      <ItemData ItemOID="IT.EX.EPOCH" Value="TREATMENT"/>
      <ItemData ItemOID="IT.EX.EXSTDTC" Value="2012-11-29"/>
      <ItemData ItemOID="IT.EX.EXENDTC" Value="2012-11-29"/>
      <ItemData ItemOID="IT.EX.EXSTDY" Value="15"/>
      <ItemData ItemOID="IT.EX.EXENDY" Value="15"/>
    </ItemGroupData>
    <ItemGroupData ItemGroupOID="IG.EX" data:ItemGroupDataSeq="71">
      <ItemData ItemOID="IT.EX.STUDYID" Value="CDISCPILOT01"/>
      <ItemData ItemOID="IT.EX.DOMAIN" Value="EX"/>
      <ItemData ItemOID="IT.EX.USUBJID" Value="CDISC002"/>
      <ItemData ItemOID="IT.EX.SPDEVID" Value="DEV0002"/>
      <ItemData ItemOID="IT.EX.EXSEQ" Value="16"/>
      <ItemData ItemOID="IT.EX.EXTRT" Value="ZANOMALINE"/>
      <ItemData ItemOID="IT.EX.EXDOSE" Value="54"/>
      <ItemData ItemOID="IT.EX.EXDOSU" Value="mg"/>
      <ItemData ItemOID="IT.EX.EXDOSFRM" Value="INJECTION"/>
      <ItemData ItemOID="IT.EX.EXDOSFRQ" Value="QD"/>
      <ItemData ItemOID="IT.EX.EXROUTE" Value="SUBCUTANEOUS"/>
      <ItemData ItemOID="IT.EX.EXLOT" Value="SDS580-359"/>
      <ItemData ItemOID="IT.EX.EPOCH" Value="TREATMENT"/>
      <ItemData ItemOID="IT.EX.EXSTDTC" Value="2012-11-30"/>
      <ItemData ItemOID="IT.EX.EXENDTC" Value="2012-11-30"/>
      <ItemData ItemOID="IT.EX.EXSTDY" Value="16"/>
      <ItemData ItemOID="IT.EX.EXENDY" Value="16"/>
    </ItemGroupData>
    <ItemGroupData ItemGroupOID="IG.EX" data:ItemGroupDataSeq="72">
      <ItemData ItemOID="IT.EX.STUDYID" Value="CDISCPILOT01"/>
      <ItemData ItemOID="IT.EX.DOMAIN" Value="EX"/>
      <ItemData ItemOID="IT.EX.USUBJID" Value="CDISC002"/>
      <ItemData ItemOID="IT.EX.SPDEVID" Value="DEV0002"/>
      <ItemData ItemOID="IT.EX.EXSEQ" Value="17"/>
      <ItemData ItemOID="IT.EX.EXTRT" Value="ZANOMALINE"/>
      <ItemData ItemOID="IT.EX.EXDOSE" Value="54"/>
      <ItemData ItemOID="IT.EX.EXDOSU" Value="mg"/>
      <ItemData ItemOID="IT.EX.EXDOSFRM" Value="INJECTION"/>
      <ItemData ItemOID="IT.EX.EXDOSFRQ" Value="QD"/>
      <ItemData ItemOID="IT.EX.EXROUTE" Value="SUBCUTANEOUS"/>
      <ItemData ItemOID="IT.EX.EXLOT" Value="SDS580-359"/>
      <ItemData ItemOID="IT.EX.EPOCH" Value="TREATMENT"/>
      <ItemData ItemOID="IT.EX.EXSTDTC" Value="2012-12-01"/>
      <ItemData ItemOID="IT.EX.EXENDTC" Value="2012-12-01"/>
      <ItemData ItemOID="IT.EX.EXSTDY" Value="17"/>
      <ItemData ItemOID="IT.EX.EXENDY" Value="17"/>
    </ItemGroupData>
    <ItemGroupData ItemGroupOID="IG.EX" data:ItemGroupDataSeq="73">
      <ItemData ItemOID="IT.EX.STUDYID" Value="CDISCPILOT01"/>
      <ItemData ItemOID="IT.EX.DOMAIN" Value="EX"/>
      <ItemData ItemOID="IT.EX.USUBJID" Value="CDISC002"/>
      <ItemData ItemOID="IT.EX.SPDEVID" Value="DEV0002"/>
      <ItemData ItemOID="IT.EX.EXSEQ" Value="18"/>
      <ItemData ItemOID="IT.EX.EXTRT" Value="ZANOMALINE"/>
      <ItemData ItemOID="IT.EX.EXDOSE" Value="54"/>
      <ItemData ItemOID="IT.EX.EXDOSU" Value="mg"/>
      <ItemData ItemOID="IT.EX.EXDOSFRM" Value="INJECTION"/>
      <ItemData ItemOID="IT.EX.EXDOSFRQ" Value="QD"/>
      <ItemData ItemOID="IT.EX.EXROUTE" Value="SUBCUTANEOUS"/>
      <ItemData ItemOID="IT.EX.EXLOT" Value="SDS580-359"/>
      <ItemData ItemOID="IT.EX.EPOCH" Value="TREATMENT"/>
      <ItemData ItemOID="IT.EX.EXSTDTC" Value="2012-12-02"/>
      <ItemData ItemOID="IT.EX.EXENDTC" Value="2012-12-02"/>
      <ItemData ItemOID="IT.EX.EXSTDY" Value="18"/>
      <ItemData ItemOID="IT.EX.EXENDY" Value="18"/>
    </ItemGroupData>
    <ItemGroupData ItemGroupOID="IG.EX" data:ItemGroupDataSeq="74">
      <ItemData ItemOID="IT.EX.STUDYID" Value="CDISCPILOT01"/>
      <ItemData ItemOID="IT.EX.DOMAIN" Value="EX"/>
      <ItemData ItemOID="IT.EX.USUBJID" Value="CDISC002"/>
      <ItemData ItemOID="IT.EX.SPDEVID" Value="DEV0002"/>
      <ItemData ItemOID="IT.EX.EXSEQ" Value="19"/>
      <ItemData ItemOID="IT.EX.EXTRT" Value="ZANOMALINE"/>
      <ItemData ItemOID="IT.EX.EXDOSE" Value="54"/>
      <ItemData ItemOID="IT.EX.EXDOSU" Value="mg"/>
      <ItemData ItemOID="IT.EX.EXDOSFRM" Value="INJECTION"/>
      <ItemData ItemOID="IT.EX.EXDOSFRQ" Value="QD"/>
      <ItemData ItemOID="IT.EX.EXROUTE" Value="SUBCUTANEOUS"/>
      <ItemData ItemOID="IT.EX.EXLOT" Value="SDS580-359"/>
      <ItemData ItemOID="IT.EX.EPOCH" Value="TREATMENT"/>
      <ItemData ItemOID="IT.EX.EXSTDTC" Value="2012-12-03"/>
      <ItemData ItemOID="IT.EX.EXENDTC" Value="2012-12-03"/>
      <ItemData ItemOID="IT.EX.EXSTDY" Value="19"/>
      <ItemData ItemOID="IT.EX.EXENDY" Value="19"/>
    </ItemGroupData>
    <ItemGroupData ItemGroupOID="IG.EX" data:ItemGroupDataSeq="75">
      <ItemData ItemOID="IT.EX.STUDYID" Value="CDISCPILOT01"/>
      <ItemData ItemOID="IT.EX.DOMAIN" Value="EX"/>
      <ItemData ItemOID="IT.EX.USUBJID" Value="CDISC002"/>
      <ItemData ItemOID="IT.EX.SPDEVID" Value="DEV0002"/>
      <ItemData ItemOID="IT.EX.EXSEQ" Value="20"/>
      <ItemData ItemOID="IT.EX.EXTRT" Value="ZANOMALINE"/>
      <ItemData ItemOID="IT.EX.EXDOSE" Value="54"/>
      <ItemData ItemOID="IT.EX.EXDOSU" Value="mg"/>
      <ItemData ItemOID="IT.EX.EXDOSFRM" Value="INJECTION"/>
      <ItemData ItemOID="IT.EX.EXDOSFRQ" Value="QD"/>
      <ItemData ItemOID="IT.EX.EXROUTE" Value="SUBCUTANEOUS"/>
      <ItemData ItemOID="IT.EX.EXLOT" Value="SDS580-359"/>
      <ItemData ItemOID="IT.EX.EPOCH" Value="TREATMENT"/>
      <ItemData ItemOID="IT.EX.EXSTDTC" Value="2012-12-04"/>
      <ItemData ItemOID="IT.EX.EXENDTC" Value="2012-12-04"/>
      <ItemData ItemOID="IT.EX.EXSTDY" Value="20"/>
      <ItemData ItemOID="IT.EX.EXENDY" Value="20"/>
    </ItemGroupData>
    <ItemGroupData ItemGroupOID="IG.EX" data:ItemGroupDataSeq="76">
      <ItemData ItemOID="IT.EX.STUDYID" Value="CDISCPILOT01"/>
      <ItemData ItemOID="IT.EX.DOMAIN" Value="EX"/>
      <ItemData ItemOID="IT.EX.USUBJID" Value="CDISC002"/>
      <ItemData ItemOID="IT.EX.SPDEVID" Value="DEV0002"/>
      <ItemData ItemOID="IT.EX.EXSEQ" Value="21"/>
      <ItemData ItemOID="IT.EX.EXTRT" Value="ZANOMALINE"/>
      <ItemData ItemOID="IT.EX.EXDOSE" Value="54"/>
      <ItemData ItemOID="IT.EX.EXDOSU" Value="mg"/>
      <ItemData ItemOID="IT.EX.EXDOSFRM" Value="INJECTION"/>
      <ItemData ItemOID="IT.EX.EXDOSFRQ" Value="QD"/>
      <ItemData ItemOID="IT.EX.EXROUTE" Value="SUBCUTANEOUS"/>
      <ItemData ItemOID="IT.EX.EXLOT" Value="SDS580-359"/>
      <ItemData ItemOID="IT.EX.EPOCH" Value="TREATMENT"/>
      <ItemData ItemOID="IT.EX.EXSTDTC" Value="2012-12-05"/>
      <ItemData ItemOID="IT.EX.EXENDTC" Value="2012-12-05"/>
      <ItemData ItemOID="IT.EX.EXSTDY" Value="21"/>
      <ItemData ItemOID="IT.EX.EXENDY" Value="21"/>
    </ItemGroupData>
    <ItemGroupData ItemGroupOID="IG.EX" data:ItemGroupDataSeq="77">
      <ItemData ItemOID="IT.EX.STUDYID" Value="CDISCPILOT01"/>
      <ItemData ItemOID="IT.EX.DOMAIN" Value="EX"/>
      <ItemData ItemOID="IT.EX.USUBJID" Value="CDISC002"/>
      <ItemData ItemOID="IT.EX.SPDEVID" Value="DEV0002"/>
      <ItemData ItemOID="IT.EX.EXSEQ" Value="22"/>
      <ItemData ItemOID="IT.EX.EXTRT" Value="ZANOMALINE"/>
      <ItemData ItemOID="IT.EX.EXDOSE" Value="54"/>
      <ItemData ItemOID="IT.EX.EXDOSU" Value="mg"/>
      <ItemData ItemOID="IT.EX.EXDOSFRM" Value="INJECTION"/>
      <ItemData ItemOID="IT.EX.EXDOSFRQ" Value="QD"/>
      <ItemData ItemOID="IT.EX.EXROUTE" Value="SUBCUTANEOUS"/>
      <ItemData ItemOID="IT.EX.EXLOT" Value="SDS580-359"/>
      <ItemData ItemOID="IT.EX.EPOCH" Value="TREATMENT"/>
      <ItemData ItemOID="IT.EX.EXSTDTC" Value="2012-12-06"/>
      <ItemData ItemOID="IT.EX.EXENDTC" Value="2012-12-06"/>
      <ItemData ItemOID="IT.EX.EXSTDY" Value="22"/>
      <ItemData ItemOID="IT.EX.EXENDY" Value="22"/>
    </ItemGroupData>
    <ItemGroupData ItemGroupOID="IG.EX" data:ItemGroupDataSeq="78">
      <ItemData ItemOID="IT.EX.STUDYID" Value="CDISCPILOT01"/>
      <ItemData ItemOID="IT.EX.DOMAIN" Value="EX"/>
      <ItemData ItemOID="IT.EX.USUBJID" Value="CDISC002"/>
      <ItemData ItemOID="IT.EX.SPDEVID" Value="DEV0002"/>
      <ItemData ItemOID="IT.EX.EXSEQ" Value="23"/>
      <ItemData ItemOID="IT.EX.EXTRT" Value="ZANOMALINE"/>
      <ItemData ItemOID="IT.EX.EXDOSE" Value="54"/>
      <ItemData ItemOID="IT.EX.EXDOSU" Value="mg"/>
      <ItemData ItemOID="IT.EX.EXDOSFRM" Value="INJECTION"/>
      <ItemData ItemOID="IT.EX.EXDOSFRQ" Value="QD"/>
      <ItemData ItemOID="IT.EX.EXROUTE" Value="SUBCUTANEOUS"/>
      <ItemData ItemOID="IT.EX.EXLOT" Value="SDS580-359"/>
      <ItemData ItemOID="IT.EX.EPOCH" Value="TREATMENT"/>
      <ItemData ItemOID="IT.EX.EXSTDTC" Value="2012-12-07"/>
      <ItemData ItemOID="IT.EX.EXENDTC" Value="2012-12-07"/>
      <ItemData ItemOID="IT.EX.EXSTDY" Value="23"/>
      <ItemData ItemOID="IT.EX.EXENDY" Value="23"/>
    </ItemGroupData>
    <ItemGroupData ItemGroupOID="IG.EX" data:ItemGroupDataSeq="79">
      <ItemData ItemOID="IT.EX.STUDYID" Value="CDISCPILOT01"/>
      <ItemData ItemOID="IT.EX.DOMAIN" Value="EX"/>
      <ItemData ItemOID="IT.EX.USUBJID" Value="CDISC002"/>
      <ItemData ItemOID="IT.EX.SPDEVID" Value="DEV0002"/>
      <ItemData ItemOID="IT.EX.EXSEQ" Value="24"/>
      <ItemData ItemOID="IT.EX.EXTRT" Value="ZANOMALINE"/>
      <ItemData ItemOID="IT.EX.EXDOSE" Value="54"/>
      <ItemData ItemOID="IT.EX.EXDOSU" Value="mg"/>
      <ItemData ItemOID="IT.EX.EXDOSFRM" Value="INJECTION"/>
      <ItemData ItemOID="IT.EX.EXDOSFRQ" Value="QD"/>
      <ItemData ItemOID="IT.EX.EXROUTE" Value="SUBCUTANEOUS"/>
      <ItemData ItemOID="IT.EX.EXLOT" Value="SDS580-359"/>
      <ItemData ItemOID="IT.EX.EPOCH" Value="TREATMENT"/>
      <ItemData ItemOID="IT.EX.EXSTDTC" Value="2012-12-08"/>
      <ItemData ItemOID="IT.EX.EXENDTC" Value="2012-12-08"/>
      <ItemData ItemOID="IT.EX.EXSTDY" Value="24"/>
      <ItemData ItemOID="IT.EX.EXENDY" Value="24"/>
    </ItemGroupData>
    <ItemGroupData ItemGroupOID="IG.EX" data:ItemGroupDataSeq="80">
      <ItemData ItemOID="IT.EX.STUDYID" Value="CDISCPILOT01"/>
      <ItemData ItemOID="IT.EX.DOMAIN" Value="EX"/>
      <ItemData ItemOID="IT.EX.USUBJID" Value="CDISC002"/>
      <ItemData ItemOID="IT.EX.SPDEVID" Value="DEV0002"/>
      <ItemData ItemOID="IT.EX.EXSEQ" Value="25"/>
      <ItemData ItemOID="IT.EX.EXTRT" Value="ZANOMALINE"/>
      <ItemData ItemOID="IT.EX.EXDOSE" Value="54"/>
      <ItemData ItemOID="IT.EX.EXDOSU" Value="mg"/>
      <ItemData ItemOID="IT.EX.EXDOSFRM" Value="INJECTION"/>
      <ItemData ItemOID="IT.EX.EXDOSFRQ" Value="QD"/>
      <ItemData ItemOID="IT.EX.EXROUTE" Value="SUBCUTANEOUS"/>
      <ItemData ItemOID="IT.EX.EXLOT" Value="SDS580-359"/>
      <ItemData ItemOID="IT.EX.EPOCH" Value="TREATMENT"/>
      <ItemData ItemOID="IT.EX.EXSTDTC" Value="2012-12-09"/>
      <ItemData ItemOID="IT.EX.EXENDTC" Value="2012-12-09"/>
      <ItemData ItemOID="IT.EX.EXSTDY" Value="25"/>
      <ItemData ItemOID="IT.EX.EXENDY" Value="25"/>
    </ItemGroupData>
    <ItemGroupData ItemGroupOID="IG.EX" data:ItemGroupDataSeq="81">
      <ItemData ItemOID="IT.EX.STUDYID" Value="CDISCPILOT01"/>
      <ItemData ItemOID="IT.EX.DOMAIN" Value="EX"/>
      <ItemData ItemOID="IT.EX.USUBJID" Value="CDISC002"/>
      <ItemData ItemOID="IT.EX.SPDEVID" Value="DEV0002"/>
      <ItemData ItemOID="IT.EX.EXSEQ" Value="26"/>
      <ItemData ItemOID="IT.EX.EXTRT" Value="ZANOMALINE"/>
      <ItemData ItemOID="IT.EX.EXDOSE" Value="54"/>
      <ItemData ItemOID="IT.EX.EXDOSU" Value="mg"/>
      <ItemData ItemOID="IT.EX.EXDOSFRM" Value="INJECTION"/>
      <ItemData ItemOID="IT.EX.EXDOSFRQ" Value="QD"/>
      <ItemData ItemOID="IT.EX.EXROUTE" Value="SUBCUTANEOUS"/>
      <ItemData ItemOID="IT.EX.EXLOT" Value="SDS580-359"/>
      <ItemData ItemOID="IT.EX.EPOCH" Value="TREATMENT"/>
      <ItemData ItemOID="IT.EX.EXSTDTC" Value="2012-12-10"/>
      <ItemData ItemOID="IT.EX.EXENDTC" Value="2012-12-10"/>
      <ItemData ItemOID="IT.EX.EXSTDY" Value="26"/>
      <ItemData ItemOID="IT.EX.EXENDY" Value="26"/>
    </ItemGroupData>
    <ItemGroupData ItemGroupOID="IG.EX" data:ItemGroupDataSeq="82">
      <ItemData ItemOID="IT.EX.STUDYID" Value="CDISCPILOT01"/>
      <ItemData ItemOID="IT.EX.DOMAIN" Value="EX"/>
      <ItemData ItemOID="IT.EX.USUBJID" Value="CDISC002"/>
      <ItemData ItemOID="IT.EX.SPDEVID" Value="DEV0002"/>
      <ItemData ItemOID="IT.EX.EXSEQ" Value="27"/>
      <ItemData ItemOID="IT.EX.EXTRT" Value="ZANOMALINE"/>
      <ItemData ItemOID="IT.EX.EXDOSE" Value="54"/>
      <ItemData ItemOID="IT.EX.EXDOSU" Value="mg"/>
      <ItemData ItemOID="IT.EX.EXDOSFRM" Value="INJECTION"/>
      <ItemData ItemOID="IT.EX.EXDOSFRQ" Value="QD"/>
      <ItemData ItemOID="IT.EX.EXROUTE" Value="SUBCUTANEOUS"/>
      <ItemData ItemOID="IT.EX.EXLOT" Value="SDS580-359"/>
      <ItemData ItemOID="IT.EX.EPOCH" Value="TREATMENT"/>
      <ItemData ItemOID="IT.EX.EXSTDTC" Value="2012-12-11"/>
      <ItemData ItemOID="IT.EX.EXENDTC" Value="2012-12-11"/>
      <ItemData ItemOID="IT.EX.EXSTDY" Value="27"/>
      <ItemData ItemOID="IT.EX.EXENDY" Value="27"/>
    </ItemGroupData>
    <ItemGroupData ItemGroupOID="IG.EX" data:ItemGroupDataSeq="83">
      <ItemData ItemOID="IT.EX.STUDYID" Value="CDISCPILOT01"/>
      <ItemData ItemOID="IT.EX.DOMAIN" Value="EX"/>
      <ItemData ItemOID="IT.EX.USUBJID" Value="CDISC002"/>
      <ItemData ItemOID="IT.EX.SPDEVID" Value="DEV0002"/>
      <ItemData ItemOID="IT.EX.EXSEQ" Value="28"/>
      <ItemData ItemOID="IT.EX.EXTRT" Value="ZANOMALINE"/>
      <ItemData ItemOID="IT.EX.EXDOSE" Value="54"/>
      <ItemData ItemOID="IT.EX.EXDOSU" Value="mg"/>
      <ItemData ItemOID="IT.EX.EXDOSFRM" Value="INJECTION"/>
      <ItemData ItemOID="IT.EX.EXDOSFRQ" Value="QD"/>
      <ItemData ItemOID="IT.EX.EXROUTE" Value="SUBCUTANEOUS"/>
      <ItemData ItemOID="IT.EX.EXLOT" Value="SDS580-359"/>
      <ItemData ItemOID="IT.EX.EPOCH" Value="TREATMENT"/>
      <ItemData ItemOID="IT.EX.EXSTDTC" Value="2012-12-12"/>
      <ItemData ItemOID="IT.EX.EXENDTC" Value="2012-12-12"/>
      <ItemData ItemOID="IT.EX.EXSTDY" Value="28"/>
      <ItemData ItemOID="IT.EX.EXENDY" Value="28"/>
    </ItemGroupData>
    <ItemGroupData ItemGroupOID="IG.EX" data:ItemGroupDataSeq="84">
      <ItemData ItemOID="IT.EX.STUDYID" Value="CDISCPILOT01"/>
      <ItemData ItemOID="IT.EX.DOMAIN" Value="EX"/>
      <ItemData ItemOID="IT.EX.USUBJID" Value="CDISC002"/>
      <ItemData ItemOID="IT.EX.SPDEVID" Value="DEV0002"/>
      <ItemData ItemOID="IT.EX.EXSEQ" Value="29"/>
      <ItemData ItemOID="IT.EX.EXTRT" Value="ZANOMALINE"/>
      <ItemData ItemOID="IT.EX.EXDOSE" Value="54"/>
      <ItemData ItemOID="IT.EX.EXDOSU" Value="mg"/>
      <ItemData ItemOID="IT.EX.EXDOSFRM" Value="INJECTION"/>
      <ItemData ItemOID="IT.EX.EXDOSFRQ" Value="QD"/>
      <ItemData ItemOID="IT.EX.EXROUTE" Value="SUBCUTANEOUS"/>
      <ItemData ItemOID="IT.EX.EXLOT" Value="SDS580-359"/>
      <ItemData ItemOID="IT.EX.EPOCH" Value="TREATMENT"/>
      <ItemData ItemOID="IT.EX.EXSTDTC" Value="2012-12-13"/>
      <ItemData ItemOID="IT.EX.EXENDTC" Value="2012-12-13"/>
      <ItemData ItemOID="IT.EX.EXSTDY" Value="29"/>
      <ItemData ItemOID="IT.EX.EXENDY" Value="29"/>
    </ItemGroupData>
    <ItemGroupData ItemGroupOID="IG.EX" data:ItemGroupDataSeq="85">
      <ItemData ItemOID="IT.EX.STUDYID" Value="CDISCPILOT01"/>
      <ItemData ItemOID="IT.EX.DOMAIN" Value="EX"/>
      <ItemData ItemOID="IT.EX.USUBJID" Value="CDISC002"/>
      <ItemData ItemOID="IT.EX.SPDEVID" Value="DEV0002"/>
      <ItemData ItemOID="IT.EX.EXSEQ" Value="30"/>
      <ItemData ItemOID="IT.EX.EXTRT" Value="ZANOMALINE"/>
      <ItemData ItemOID="IT.EX.EXDOSE" Value="54"/>
      <ItemData ItemOID="IT.EX.EXDOSU" Value="mg"/>
      <ItemData ItemOID="IT.EX.EXDOSFRM" Value="INJECTION"/>
      <ItemData ItemOID="IT.EX.EXDOSFRQ" Value="QD"/>
      <ItemData ItemOID="IT.EX.EXROUTE" Value="SUBCUTANEOUS"/>
      <ItemData ItemOID="IT.EX.EXLOT" Value="SDS580-359"/>
      <ItemData ItemOID="IT.EX.EPOCH" Value="TREATMENT"/>
      <ItemData ItemOID="IT.EX.EXSTDTC" Value="2012-12-14"/>
      <ItemData ItemOID="IT.EX.EXENDTC" Value="2012-12-14"/>
      <ItemData ItemOID="IT.EX.EXSTDY" Value="30"/>
      <ItemData ItemOID="IT.EX.EXENDY" Value="30"/>
    </ItemGroupData>
    <ItemGroupData ItemGroupOID="IG.EX" data:ItemGroupDataSeq="86">
      <ItemData ItemOID="IT.EX.STUDYID" Value="CDISCPILOT01"/>
      <ItemData ItemOID="IT.EX.DOMAIN" Value="EX"/>
      <ItemData ItemOID="IT.EX.USUBJID" Value="CDISC002"/>
      <ItemData ItemOID="IT.EX.SPDEVID" Value="DEV0002"/>
      <ItemData ItemOID="IT.EX.EXSEQ" Value="31"/>
      <ItemData ItemOID="IT.EX.EXTRT" Value="ZANOMALINE"/>
      <ItemData ItemOID="IT.EX.EXDOSE" Value="54"/>
      <ItemData ItemOID="IT.EX.EXDOSU" Value="mg"/>
      <ItemData ItemOID="IT.EX.EXDOSFRM" Value="INJECTION"/>
      <ItemData ItemOID="IT.EX.EXDOSFRQ" Value="QD"/>
      <ItemData ItemOID="IT.EX.EXROUTE" Value="SUBCUTANEOUS"/>
      <ItemData ItemOID="IT.EX.EXLOT" Value="SDS580-359"/>
      <ItemData ItemOID="IT.EX.EPOCH" Value="TREATMENT"/>
      <ItemData ItemOID="IT.EX.EXSTDTC" Value="2012-12-15"/>
      <ItemData ItemOID="IT.EX.EXENDTC" Value="2012-12-15"/>
      <ItemData ItemOID="IT.EX.EXSTDY" Value="31"/>
      <ItemData ItemOID="IT.EX.EXENDY" Value="31"/>
    </ItemGroupData>
    <ItemGroupData ItemGroupOID="IG.EX" data:ItemGroupDataSeq="87">
      <ItemData ItemOID="IT.EX.STUDYID" Value="CDISCPILOT01"/>
      <ItemData ItemOID="IT.EX.DOMAIN" Value="EX"/>
      <ItemData ItemOID="IT.EX.USUBJID" Value="CDISC002"/>
      <ItemData ItemOID="IT.EX.SPDEVID" Value="DEV0002"/>
      <ItemData ItemOID="IT.EX.EXSEQ" Value="32"/>
      <ItemData ItemOID="IT.EX.EXTRT" Value="ZANOMALINE"/>
      <ItemData ItemOID="IT.EX.EXDOSE" Value="54"/>
      <ItemData ItemOID="IT.EX.EXDOSU" Value="mg"/>
      <ItemData ItemOID="IT.EX.EXDOSFRM" Value="INJECTION"/>
      <ItemData ItemOID="IT.EX.EXDOSFRQ" Value="QD"/>
      <ItemData ItemOID="IT.EX.EXROUTE" Value="SUBCUTANEOUS"/>
      <ItemData ItemOID="IT.EX.EXLOT" Value="SDS580-359"/>
      <ItemData ItemOID="IT.EX.EPOCH" Value="TREATMENT"/>
      <ItemData ItemOID="IT.EX.EXSTDTC" Value="2012-12-16"/>
      <ItemData ItemOID="IT.EX.EXENDTC" Value="2012-12-16"/>
      <ItemData ItemOID="IT.EX.EXSTDY" Value="32"/>
      <ItemData ItemOID="IT.EX.EXENDY" Value="32"/>
    </ItemGroupData>
    <ItemGroupData ItemGroupOID="IG.EX" data:ItemGroupDataSeq="88">
      <ItemData ItemOID="IT.EX.STUDYID" Value="CDISCPILOT01"/>
      <ItemData ItemOID="IT.EX.DOMAIN" Value="EX"/>
      <ItemData ItemOID="IT.EX.USUBJID" Value="CDISC002"/>
      <ItemData ItemOID="IT.EX.SPDEVID" Value="DEV0002"/>
      <ItemData ItemOID="IT.EX.EXSEQ" Value="33"/>
      <ItemData ItemOID="IT.EX.EXTRT" Value="ZANOMALINE"/>
      <ItemData ItemOID="IT.EX.EXDOSE" Value="54"/>
      <ItemData ItemOID="IT.EX.EXDOSU" Value="mg"/>
      <ItemData ItemOID="IT.EX.EXDOSFRM" Value="INJECTION"/>
      <ItemData ItemOID="IT.EX.EXDOSFRQ" Value="QD"/>
      <ItemData ItemOID="IT.EX.EXROUTE" Value="SUBCUTANEOUS"/>
      <ItemData ItemOID="IT.EX.EXLOT" Value="SDS580-359"/>
      <ItemData ItemOID="IT.EX.EPOCH" Value="TREATMENT"/>
      <ItemData ItemOID="IT.EX.EXSTDTC" Value="2012-12-17"/>
      <ItemData ItemOID="IT.EX.EXENDTC" Value="2012-12-17"/>
      <ItemData ItemOID="IT.EX.EXSTDY" Value="33"/>
      <ItemData ItemOID="IT.EX.EXENDY" Value="33"/>
    </ItemGroupData>
    <ItemGroupData ItemGroupOID="IG.EX" data:ItemGroupDataSeq="89">
      <ItemData ItemOID="IT.EX.STUDYID" Value="CDISCPILOT01"/>
      <ItemData ItemOID="IT.EX.DOMAIN" Value="EX"/>
      <ItemData ItemOID="IT.EX.USUBJID" Value="CDISC002"/>
      <ItemData ItemOID="IT.EX.SPDEVID" Value="DEV0002"/>
      <ItemData ItemOID="IT.EX.EXSEQ" Value="34"/>
      <ItemData ItemOID="IT.EX.EXTRT" Value="ZANOMALINE"/>
      <ItemData ItemOID="IT.EX.EXDOSE" Value="54"/>
      <ItemData ItemOID="IT.EX.EXDOSU" Value="mg"/>
      <ItemData ItemOID="IT.EX.EXDOSFRM" Value="INJECTION"/>
      <ItemData ItemOID="IT.EX.EXDOSFRQ" Value="QD"/>
      <ItemData ItemOID="IT.EX.EXROUTE" Value="SUBCUTANEOUS"/>
      <ItemData ItemOID="IT.EX.EXLOT" Value="SDS580-359"/>
      <ItemData ItemOID="IT.EX.EPOCH" Value="TREATMENT"/>
      <ItemData ItemOID="IT.EX.EXSTDTC" Value="2012-12-18"/>
      <ItemData ItemOID="IT.EX.EXENDTC" Value="2012-12-18"/>
      <ItemData ItemOID="IT.EX.EXSTDY" Value="34"/>
      <ItemData ItemOID="IT.EX.EXENDY" Value="34"/>
    </ItemGroupData>
    <ItemGroupData ItemGroupOID="IG.EX" data:ItemGroupDataSeq="90">
      <ItemData ItemOID="IT.EX.STUDYID" Value="CDISCPILOT01"/>
      <ItemData ItemOID="IT.EX.DOMAIN" Value="EX"/>
      <ItemData ItemOID="IT.EX.USUBJID" Value="CDISC002"/>
      <ItemData ItemOID="IT.EX.SPDEVID" Value="DEV0002"/>
      <ItemData ItemOID="IT.EX.EXSEQ" Value="35"/>
      <ItemData ItemOID="IT.EX.EXTRT" Value="ZANOMALINE"/>
      <ItemData ItemOID="IT.EX.EXDOSE" Value="54"/>
      <ItemData ItemOID="IT.EX.EXDOSU" Value="mg"/>
      <ItemData ItemOID="IT.EX.EXDOSFRM" Value="INJECTION"/>
      <ItemData ItemOID="IT.EX.EXDOSFRQ" Value="QD"/>
      <ItemData ItemOID="IT.EX.EXROUTE" Value="SUBCUTANEOUS"/>
      <ItemData ItemOID="IT.EX.EXLOT" Value="SDS580-359"/>
      <ItemData ItemOID="IT.EX.EPOCH" Value="TREATMENT"/>
      <ItemData ItemOID="IT.EX.EXSTDTC" Value="2012-12-19"/>
      <ItemData ItemOID="IT.EX.EXENDTC" Value="2012-12-19"/>
      <ItemData ItemOID="IT.EX.EXSTDY" Value="35"/>
      <ItemData ItemOID="IT.EX.EXENDY" Value="35"/>
    </ItemGroupData>
    <ItemGroupData ItemGroupOID="IG.EX" data:ItemGroupDataSeq="91">
      <ItemData ItemOID="IT.EX.STUDYID" Value="CDISCPILOT01"/>
      <ItemData ItemOID="IT.EX.DOMAIN" Value="EX"/>
      <ItemData ItemOID="IT.EX.USUBJID" Value="CDISC002"/>
      <ItemData ItemOID="IT.EX.SPDEVID" Value="DEV0002"/>
      <ItemData ItemOID="IT.EX.EXSEQ" Value="36"/>
      <ItemData ItemOID="IT.EX.EXTRT" Value="ZANOMALINE"/>
      <ItemData ItemOID="IT.EX.EXDOSE" Value="54"/>
      <ItemData ItemOID="IT.EX.EXDOSU" Value="mg"/>
      <ItemData ItemOID="IT.EX.EXDOSFRM" Value="INJECTION"/>
      <ItemData ItemOID="IT.EX.EXDOSFRQ" Value="QD"/>
      <ItemData ItemOID="IT.EX.EXROUTE" Value="SUBCUTANEOUS"/>
      <ItemData ItemOID="IT.EX.EXLOT" Value="SDS580-359"/>
      <ItemData ItemOID="IT.EX.EPOCH" Value="TREATMENT"/>
      <ItemData ItemOID="IT.EX.EXSTDTC" Value="2012-12-20"/>
      <ItemData ItemOID="IT.EX.EXENDTC" Value="2012-12-20"/>
      <ItemData ItemOID="IT.EX.EXSTDY" Value="36"/>
      <ItemData ItemOID="IT.EX.EXENDY" Value="36"/>
    </ItemGroupData>
    <ItemGroupData ItemGroupOID="IG.EX" data:ItemGroupDataSeq="92">
      <ItemData ItemOID="IT.EX.STUDYID" Value="CDISCPILOT01"/>
      <ItemData ItemOID="IT.EX.DOMAIN" Value="EX"/>
      <ItemData ItemOID="IT.EX.USUBJID" Value="CDISC002"/>
      <ItemData ItemOID="IT.EX.SPDEVID" Value="DEV0002"/>
      <ItemData ItemOID="IT.EX.EXSEQ" Value="37"/>
      <ItemData ItemOID="IT.EX.EXTRT" Value="ZANOMALINE"/>
      <ItemData ItemOID="IT.EX.EXDOSE" Value="54"/>
      <ItemData ItemOID="IT.EX.EXDOSU" Value="mg"/>
      <ItemData ItemOID="IT.EX.EXDOSFRM" Value="INJECTION"/>
      <ItemData ItemOID="IT.EX.EXDOSFRQ" Value="QD"/>
      <ItemData ItemOID="IT.EX.EXROUTE" Value="SUBCUTANEOUS"/>
      <ItemData ItemOID="IT.EX.EXLOT" Value="SDS580-359"/>
      <ItemData ItemOID="IT.EX.EPOCH" Value="TREATMENT"/>
      <ItemData ItemOID="IT.EX.EXSTDTC" Value="2012-12-21"/>
      <ItemData ItemOID="IT.EX.EXENDTC" Value="2012-12-21"/>
      <ItemData ItemOID="IT.EX.EXSTDY" Value="37"/>
      <ItemData ItemOID="IT.EX.EXENDY" Value="37"/>
    </ItemGroupData>
    <ItemGroupData ItemGroupOID="IG.EX" data:ItemGroupDataSeq="93">
      <ItemData ItemOID="IT.EX.STUDYID" Value="CDISCPILOT01"/>
      <ItemData ItemOID="IT.EX.DOMAIN" Value="EX"/>
      <ItemData ItemOID="IT.EX.USUBJID" Value="CDISC002"/>
      <ItemData ItemOID="IT.EX.SPDEVID" Value="DEV0002"/>
      <ItemData ItemOID="IT.EX.EXSEQ" Value="38"/>
      <ItemData ItemOID="IT.EX.EXTRT" Value="ZANOMALINE"/>
      <ItemData ItemOID="IT.EX.EXDOSE" Value="54"/>
      <ItemData ItemOID="IT.EX.EXDOSU" Value="mg"/>
      <ItemData ItemOID="IT.EX.EXDOSFRM" Value="INJECTION"/>
      <ItemData ItemOID="IT.EX.EXDOSFRQ" Value="QD"/>
      <ItemData ItemOID="IT.EX.EXROUTE" Value="SUBCUTANEOUS"/>
      <ItemData ItemOID="IT.EX.EXLOT" Value="SDS580-359"/>
      <ItemData ItemOID="IT.EX.EPOCH" Value="TREATMENT"/>
      <ItemData ItemOID="IT.EX.EXSTDTC" Value="2012-12-22"/>
      <ItemData ItemOID="IT.EX.EXENDTC" Value="2012-12-22"/>
      <ItemData ItemOID="IT.EX.EXSTDY" Value="38"/>
      <ItemData ItemOID="IT.EX.EXENDY" Value="38"/>
    </ItemGroupData>
    <ItemGroupData ItemGroupOID="IG.EX" data:ItemGroupDataSeq="94">
      <ItemData ItemOID="IT.EX.STUDYID" Value="CDISCPILOT01"/>
      <ItemData ItemOID="IT.EX.DOMAIN" Value="EX"/>
      <ItemData ItemOID="IT.EX.USUBJID" Value="CDISC002"/>
      <ItemData ItemOID="IT.EX.SPDEVID" Value="DEV0002"/>
      <ItemData ItemOID="IT.EX.EXSEQ" Value="39"/>
      <ItemData ItemOID="IT.EX.EXTRT" Value="ZANOMALINE"/>
      <ItemData ItemOID="IT.EX.EXDOSE" Value="54"/>
      <ItemData ItemOID="IT.EX.EXDOSU" Value="mg"/>
      <ItemData ItemOID="IT.EX.EXDOSFRM" Value="INJECTION"/>
      <ItemData ItemOID="IT.EX.EXDOSFRQ" Value="QD"/>
      <ItemData ItemOID="IT.EX.EXROUTE" Value="SUBCUTANEOUS"/>
      <ItemData ItemOID="IT.EX.EXLOT" Value="SDS580-359"/>
      <ItemData ItemOID="IT.EX.EPOCH" Value="TREATMENT"/>
      <ItemData ItemOID="IT.EX.EXSTDTC" Value="2012-12-23"/>
      <ItemData ItemOID="IT.EX.EXENDTC" Value="2012-12-23"/>
      <ItemData ItemOID="IT.EX.EXSTDY" Value="39"/>
      <ItemData ItemOID="IT.EX.EXENDY" Value="39"/>
    </ItemGroupData>
    <ItemGroupData ItemGroupOID="IG.EX" data:ItemGroupDataSeq="95">
      <ItemData ItemOID="IT.EX.STUDYID" Value="CDISCPILOT01"/>
      <ItemData ItemOID="IT.EX.DOMAIN" Value="EX"/>
      <ItemData ItemOID="IT.EX.USUBJID" Value="CDISC002"/>
      <ItemData ItemOID="IT.EX.SPDEVID" Value="DEV0002"/>
      <ItemData ItemOID="IT.EX.EXSEQ" Value="40"/>
      <ItemData ItemOID="IT.EX.EXTRT" Value="ZANOMALINE"/>
      <ItemData ItemOID="IT.EX.EXDOSE" Value="54"/>
      <ItemData ItemOID="IT.EX.EXDOSU" Value="mg"/>
      <ItemData ItemOID="IT.EX.EXDOSFRM" Value="INJECTION"/>
      <ItemData ItemOID="IT.EX.EXDOSFRQ" Value="QD"/>
      <ItemData ItemOID="IT.EX.EXROUTE" Value="SUBCUTANEOUS"/>
      <ItemData ItemOID="IT.EX.EXLOT" Value="SDS580-359"/>
      <ItemData ItemOID="IT.EX.EPOCH" Value="TREATMENT"/>
      <ItemData ItemOID="IT.EX.EXSTDTC" Value="2012-12-24"/>
      <ItemData ItemOID="IT.EX.EXENDTC" Value="2012-12-24"/>
      <ItemData ItemOID="IT.EX.EXSTDY" Value="40"/>
      <ItemData ItemOID="IT.EX.EXENDY" Value="40"/>
    </ItemGroupData>
    <ItemGroupData ItemGroupOID="IG.EX" data:ItemGroupDataSeq="96">
      <ItemData ItemOID="IT.EX.STUDYID" Value="CDISCPILOT01"/>
      <ItemData ItemOID="IT.EX.DOMAIN" Value="EX"/>
      <ItemData ItemOID="IT.EX.USUBJID" Value="CDISC002"/>
      <ItemData ItemOID="IT.EX.SPDEVID" Value="DEV0002"/>
      <ItemData ItemOID="IT.EX.EXSEQ" Value="41"/>
      <ItemData ItemOID="IT.EX.EXTRT" Value="ZANOMALINE"/>
      <ItemData ItemOID="IT.EX.EXDOSE" Value="54"/>
      <ItemData ItemOID="IT.EX.EXDOSU" Value="mg"/>
      <ItemData ItemOID="IT.EX.EXDOSFRM" Value="INJECTION"/>
      <ItemData ItemOID="IT.EX.EXDOSFRQ" Value="QD"/>
      <ItemData ItemOID="IT.EX.EXROUTE" Value="SUBCUTANEOUS"/>
      <ItemData ItemOID="IT.EX.EXLOT" Value="SDS580-359"/>
      <ItemData ItemOID="IT.EX.EPOCH" Value="TREATMENT"/>
      <ItemData ItemOID="IT.EX.EXSTDTC" Value="2012-12-25"/>
      <ItemData ItemOID="IT.EX.EXENDTC" Value="2012-12-25"/>
      <ItemData ItemOID="IT.EX.EXSTDY" Value="41"/>
      <ItemData ItemOID="IT.EX.EXENDY" Value="41"/>
    </ItemGroupData>
    <ItemGroupData ItemGroupOID="IG.EX" data:ItemGroupDataSeq="97">
      <ItemData ItemOID="IT.EX.STUDYID" Value="CDISCPILOT01"/>
      <ItemData ItemOID="IT.EX.DOMAIN" Value="EX"/>
      <ItemData ItemOID="IT.EX.USUBJID" Value="CDISC002"/>
      <ItemData ItemOID="IT.EX.SPDEVID" Value="DEV0002"/>
      <ItemData ItemOID="IT.EX.EXSEQ" Value="42"/>
      <ItemData ItemOID="IT.EX.EXTRT" Value="ZANOMALINE"/>
      <ItemData ItemOID="IT.EX.EXDOSE" Value="54"/>
      <ItemData ItemOID="IT.EX.EXDOSU" Value="mg"/>
      <ItemData ItemOID="IT.EX.EXDOSFRM" Value="INJECTION"/>
      <ItemData ItemOID="IT.EX.EXDOSFRQ" Value="QD"/>
      <ItemData ItemOID="IT.EX.EXROUTE" Value="SUBCUTANEOUS"/>
      <ItemData ItemOID="IT.EX.EXLOT" Value="SDS580-359"/>
      <ItemData ItemOID="IT.EX.EPOCH" Value="TREATMENT"/>
      <ItemData ItemOID="IT.EX.EXSTDTC" Value="2012-12-26"/>
      <ItemData ItemOID="IT.EX.EXENDTC" Value="2012-12-26"/>
      <ItemData ItemOID="IT.EX.EXSTDY" Value="42"/>
      <ItemData ItemOID="IT.EX.EXENDY" Value="42"/>
    </ItemGroupData>
    <ItemGroupData ItemGroupOID="IG.EX" data:ItemGroupDataSeq="98">
      <ItemData ItemOID="IT.EX.STUDYID" Value="CDISCPILOT01"/>
      <ItemData ItemOID="IT.EX.DOMAIN" Value="EX"/>
      <ItemData ItemOID="IT.EX.USUBJID" Value="CDISC002"/>
      <ItemData ItemOID="IT.EX.SPDEVID" Value="DEV0002"/>
      <ItemData ItemOID="IT.EX.EXSEQ" Value="43"/>
      <ItemData ItemOID="IT.EX.EXTRT" Value="ZANOMALINE"/>
      <ItemData ItemOID="IT.EX.EXDOSE" Value="54"/>
      <ItemData ItemOID="IT.EX.EXDOSU" Value="mg"/>
      <ItemData ItemOID="IT.EX.EXDOSFRM" Value="INJECTION"/>
      <ItemData ItemOID="IT.EX.EXDOSFRQ" Value="QD"/>
      <ItemData ItemOID="IT.EX.EXROUTE" Value="SUBCUTANEOUS"/>
      <ItemData ItemOID="IT.EX.EXLOT" Value="SDS580-359"/>
      <ItemData ItemOID="IT.EX.EPOCH" Value="TREATMENT"/>
      <ItemData ItemOID="IT.EX.EXSTDTC" Value="2012-12-27"/>
      <ItemData ItemOID="IT.EX.EXENDTC" Value="2012-12-27"/>
      <ItemData ItemOID="IT.EX.EXSTDY" Value="43"/>
      <ItemData ItemOID="IT.EX.EXENDY" Value="43"/>
    </ItemGroupData>
    <ItemGroupData ItemGroupOID="IG.EX" data:ItemGroupDataSeq="99">
      <ItemData ItemOID="IT.EX.STUDYID" Value="CDISCPILOT01"/>
      <ItemData ItemOID="IT.EX.DOMAIN" Value="EX"/>
      <ItemData ItemOID="IT.EX.USUBJID" Value="CDISC002"/>
      <ItemData ItemOID="IT.EX.SPDEVID" Value="DEV0002"/>
      <ItemData ItemOID="IT.EX.EXSEQ" Value="44"/>
      <ItemData ItemOID="IT.EX.EXTRT" Value="ZANOMALINE"/>
      <ItemData ItemOID="IT.EX.EXDOSE" Value="54"/>
      <ItemData ItemOID="IT.EX.EXDOSU" Value="mg"/>
      <ItemData ItemOID="IT.EX.EXDOSFRM" Value="INJECTION"/>
      <ItemData ItemOID="IT.EX.EXDOSFRQ" Value="QD"/>
      <ItemData ItemOID="IT.EX.EXROUTE" Value="SUBCUTANEOUS"/>
      <ItemData ItemOID="IT.EX.EXLOT" Value="SDS580-359"/>
      <ItemData ItemOID="IT.EX.EPOCH" Value="TREATMENT"/>
      <ItemData ItemOID="IT.EX.EXSTDTC" Value="2012-12-28"/>
      <ItemData ItemOID="IT.EX.EXENDTC" Value="2012-12-28"/>
      <ItemData ItemOID="IT.EX.EXSTDY" Value="44"/>
      <ItemData ItemOID="IT.EX.EXENDY" Value="44"/>
    </ItemGroupData>
    <ItemGroupData ItemGroupOID="IG.EX" data:ItemGroupDataSeq="100">
      <ItemData ItemOID="IT.EX.STUDYID" Value="CDISCPILOT01"/>
      <ItemData ItemOID="IT.EX.DOMAIN" Value="EX"/>
      <ItemData ItemOID="IT.EX.USUBJID" Value="CDISC002"/>
      <ItemData ItemOID="IT.EX.SPDEVID" Value="DEV0002"/>
      <ItemData ItemOID="IT.EX.EXSEQ" Value="45"/>
      <ItemData ItemOID="IT.EX.EXTRT" Value="ZANOMALINE"/>
      <ItemData ItemOID="IT.EX.EXDOSE" Value="54"/>
      <ItemData ItemOID="IT.EX.EXDOSU" Value="mg"/>
      <ItemData ItemOID="IT.EX.EXDOSFRM" Value="INJECTION"/>
      <ItemData ItemOID="IT.EX.EXDOSFRQ" Value="QD"/>
      <ItemData ItemOID="IT.EX.EXROUTE" Value="SUBCUTANEOUS"/>
      <ItemData ItemOID="IT.EX.EXLOT" Value="SDS580-359"/>
      <ItemData ItemOID="IT.EX.EPOCH" Value="TREATMENT"/>
      <ItemData ItemOID="IT.EX.EXSTDTC" Value="2012-12-29"/>
      <ItemData ItemOID="IT.EX.EXENDTC" Value="2012-12-29"/>
      <ItemData ItemOID="IT.EX.EXSTDY" Value="45"/>
      <ItemData ItemOID="IT.EX.EXENDY" Value="45"/>
    </ItemGroupData>
    <ItemGroupData ItemGroupOID="IG.EX" data:ItemGroupDataSeq="101">
      <ItemData ItemOID="IT.EX.STUDYID" Value="CDISCPILOT01"/>
      <ItemData ItemOID="IT.EX.DOMAIN" Value="EX"/>
      <ItemData ItemOID="IT.EX.USUBJID" Value="CDISC002"/>
      <ItemData ItemOID="IT.EX.SPDEVID" Value="DEV0002"/>
      <ItemData ItemOID="IT.EX.EXSEQ" Value="46"/>
      <ItemData ItemOID="IT.EX.EXTRT" Value="ZANOMALINE"/>
      <ItemData ItemOID="IT.EX.EXDOSE" Value="54"/>
      <ItemData ItemOID="IT.EX.EXDOSU" Value="mg"/>
      <ItemData ItemOID="IT.EX.EXDOSFRM" Value="INJECTION"/>
      <ItemData ItemOID="IT.EX.EXDOSFRQ" Value="QD"/>
      <ItemData ItemOID="IT.EX.EXROUTE" Value="SUBCUTANEOUS"/>
      <ItemData ItemOID="IT.EX.EXLOT" Value="SDS580-359"/>
      <ItemData ItemOID="IT.EX.EPOCH" Value="TREATMENT"/>
      <ItemData ItemOID="IT.EX.EXSTDTC" Value="2012-12-30"/>
      <ItemData ItemOID="IT.EX.EXENDTC" Value="2012-12-30"/>
      <ItemData ItemOID="IT.EX.EXSTDY" Value="46"/>
      <ItemData ItemOID="IT.EX.EXENDY" Value="46"/>
    </ItemGroupData>
    <ItemGroupData ItemGroupOID="IG.EX" data:ItemGroupDataSeq="102">
      <ItemData ItemOID="IT.EX.STUDYID" Value="CDISCPILOT01"/>
      <ItemData ItemOID="IT.EX.DOMAIN" Value="EX"/>
      <ItemData ItemOID="IT.EX.USUBJID" Value="CDISC002"/>
      <ItemData ItemOID="IT.EX.SPDEVID" Value="DEV0002"/>
      <ItemData ItemOID="IT.EX.EXSEQ" Value="47"/>
      <ItemData ItemOID="IT.EX.EXTRT" Value="ZANOMALINE"/>
      <ItemData ItemOID="IT.EX.EXDOSE" Value="54"/>
      <ItemData ItemOID="IT.EX.EXDOSU" Value="mg"/>
      <ItemData ItemOID="IT.EX.EXDOSFRM" Value="INJECTION"/>
      <ItemData ItemOID="IT.EX.EXDOSFRQ" Value="QD"/>
      <ItemData ItemOID="IT.EX.EXROUTE" Value="SUBCUTANEOUS"/>
      <ItemData ItemOID="IT.EX.EXLOT" Value="SDS580-359"/>
      <ItemData ItemOID="IT.EX.EPOCH" Value="TREATMENT"/>
      <ItemData ItemOID="IT.EX.EXSTDTC" Value="2012-12-31"/>
      <ItemData ItemOID="IT.EX.EXENDTC" Value="2012-12-31"/>
      <ItemData ItemOID="IT.EX.EXSTDY" Value="47"/>
      <ItemData ItemOID="IT.EX.EXENDY" Value="47"/>
    </ItemGroupData>
    <ItemGroupData ItemGroupOID="IG.EX" data:ItemGroupDataSeq="103">
      <ItemData ItemOID="IT.EX.STUDYID" Value="CDISCPILOT01"/>
      <ItemData ItemOID="IT.EX.DOMAIN" Value="EX"/>
      <ItemData ItemOID="IT.EX.USUBJID" Value="CDISC002"/>
      <ItemData ItemOID="IT.EX.SPDEVID" Value="DEV0002"/>
      <ItemData ItemOID="IT.EX.EXSEQ" Value="48"/>
      <ItemData ItemOID="IT.EX.EXTRT" Value="ZANOMALINE"/>
      <ItemData ItemOID="IT.EX.EXDOSE" Value="54"/>
      <ItemData ItemOID="IT.EX.EXDOSU" Value="mg"/>
      <ItemData ItemOID="IT.EX.EXDOSFRM" Value="INJECTION"/>
      <ItemData ItemOID="IT.EX.EXDOSFRQ" Value="QD"/>
      <ItemData ItemOID="IT.EX.EXROUTE" Value="SUBCUTANEOUS"/>
      <ItemData ItemOID="IT.EX.EXLOT" Value="SDS580-359"/>
      <ItemData ItemOID="IT.EX.EPOCH" Value="TREATMENT"/>
      <ItemData ItemOID="IT.EX.EXSTDTC" Value="2013-01-01"/>
      <ItemData ItemOID="IT.EX.EXENDTC" Value="2013-01-01"/>
      <ItemData ItemOID="IT.EX.EXSTDY" Value="48"/>
      <ItemData ItemOID="IT.EX.EXENDY" Value="48"/>
    </ItemGroupData>
    <ItemGroupData ItemGroupOID="IG.EX" data:ItemGroupDataSeq="104">
      <ItemData ItemOID="IT.EX.STUDYID" Value="CDISCPILOT01"/>
      <ItemData ItemOID="IT.EX.DOMAIN" Value="EX"/>
      <ItemData ItemOID="IT.EX.USUBJID" Value="CDISC002"/>
      <ItemData ItemOID="IT.EX.SPDEVID" Value="DEV0002"/>
      <ItemData ItemOID="IT.EX.EXSEQ" Value="49"/>
      <ItemData ItemOID="IT.EX.EXTRT" Value="ZANOMALINE"/>
      <ItemData ItemOID="IT.EX.EXDOSE" Value="54"/>
      <ItemData ItemOID="IT.EX.EXDOSU" Value="mg"/>
      <ItemData ItemOID="IT.EX.EXDOSFRM" Value="INJECTION"/>
      <ItemData ItemOID="IT.EX.EXDOSFRQ" Value="QD"/>
      <ItemData ItemOID="IT.EX.EXROUTE" Value="SUBCUTANEOUS"/>
      <ItemData ItemOID="IT.EX.EXLOT" Value="SDS580-359"/>
      <ItemData ItemOID="IT.EX.EPOCH" Value="TREATMENT"/>
      <ItemData ItemOID="IT.EX.EXSTDTC" Value="2013-01-02"/>
      <ItemData ItemOID="IT.EX.EXENDTC" Value="2013-01-02"/>
      <ItemData ItemOID="IT.EX.EXSTDY" Value="49"/>
      <ItemData ItemOID="IT.EX.EXENDY" Value="49"/>
    </ItemGroupData>
    <ItemGroupData ItemGroupOID="IG.EX" data:ItemGroupDataSeq="105">
      <ItemData ItemOID="IT.EX.STUDYID" Value="CDISCPILOT01"/>
      <ItemData ItemOID="IT.EX.DOMAIN" Value="EX"/>
      <ItemData ItemOID="IT.EX.USUBJID" Value="CDISC002"/>
      <ItemData ItemOID="IT.EX.SPDEVID" Value="DEV0002"/>
      <ItemData ItemOID="IT.EX.EXSEQ" Value="50"/>
      <ItemData ItemOID="IT.EX.EXTRT" Value="ZANOMALINE"/>
      <ItemData ItemOID="IT.EX.EXDOSE" Value="54"/>
      <ItemData ItemOID="IT.EX.EXDOSU" Value="mg"/>
      <ItemData ItemOID="IT.EX.EXDOSFRM" Value="INJECTION"/>
      <ItemData ItemOID="IT.EX.EXDOSFRQ" Value="QD"/>
      <ItemData ItemOID="IT.EX.EXROUTE" Value="SUBCUTANEOUS"/>
      <ItemData ItemOID="IT.EX.EXLOT" Value="SDS580-359"/>
      <ItemData ItemOID="IT.EX.EPOCH" Value="TREATMENT"/>
      <ItemData ItemOID="IT.EX.EXSTDTC" Value="2013-01-03"/>
      <ItemData ItemOID="IT.EX.EXENDTC" Value="2013-01-03"/>
      <ItemData ItemOID="IT.EX.EXSTDY" Value="50"/>
      <ItemData ItemOID="IT.EX.EXENDY" Value="50"/>
    </ItemGroupData>
    <ItemGroupData ItemGroupOID="IG.EX" data:ItemGroupDataSeq="106">
      <ItemData ItemOID="IT.EX.STUDYID" Value="CDISCPILOT01"/>
      <ItemData ItemOID="IT.EX.DOMAIN" Value="EX"/>
      <ItemData ItemOID="IT.EX.USUBJID" Value="CDISC002"/>
      <ItemData ItemOID="IT.EX.SPDEVID" Value="DEV0002"/>
      <ItemData ItemOID="IT.EX.EXSEQ" Value="51"/>
      <ItemData ItemOID="IT.EX.EXTRT" Value="ZANOMALINE"/>
      <ItemData ItemOID="IT.EX.EXDOSE" Value="54"/>
      <ItemData ItemOID="IT.EX.EXDOSU" Value="mg"/>
      <ItemData ItemOID="IT.EX.EXDOSFRM" Value="INJECTION"/>
      <ItemData ItemOID="IT.EX.EXDOSFRQ" Value="QD"/>
      <ItemData ItemOID="IT.EX.EXROUTE" Value="SUBCUTANEOUS"/>
      <ItemData ItemOID="IT.EX.EXLOT" Value="SDS580-359"/>
      <ItemData ItemOID="IT.EX.EPOCH" Value="TREATMENT"/>
      <ItemData ItemOID="IT.EX.EXSTDTC" Value="2013-01-04"/>
      <ItemData ItemOID="IT.EX.EXENDTC" Value="2013-01-04"/>
      <ItemData ItemOID="IT.EX.EXSTDY" Value="51"/>
      <ItemData ItemOID="IT.EX.EXENDY" Value="51"/>
    </ItemGroupData>
    <ItemGroupData ItemGroupOID="IG.EX" data:ItemGroupDataSeq="107">
      <ItemData ItemOID="IT.EX.STUDYID" Value="CDISCPILOT01"/>
      <ItemData ItemOID="IT.EX.DOMAIN" Value="EX"/>
      <ItemData ItemOID="IT.EX.USUBJID" Value="CDISC002"/>
      <ItemData ItemOID="IT.EX.SPDEVID" Value="DEV0002"/>
      <ItemData ItemOID="IT.EX.EXSEQ" Value="52"/>
      <ItemData ItemOID="IT.EX.EXTRT" Value="ZANOMALINE"/>
      <ItemData ItemOID="IT.EX.EXDOSE" Value="54"/>
      <ItemData ItemOID="IT.EX.EXDOSU" Value="mg"/>
      <ItemData ItemOID="IT.EX.EXDOSFRM" Value="INJECTION"/>
      <ItemData ItemOID="IT.EX.EXDOSFRQ" Value="QD"/>
      <ItemData ItemOID="IT.EX.EXROUTE" Value="SUBCUTANEOUS"/>
      <ItemData ItemOID="IT.EX.EXLOT" Value="SDS580-359"/>
      <ItemData ItemOID="IT.EX.EPOCH" Value="TREATMENT"/>
      <ItemData ItemOID="IT.EX.EXSTDTC" Value="2013-01-05"/>
      <ItemData ItemOID="IT.EX.EXENDTC" Value="2013-01-05"/>
      <ItemData ItemOID="IT.EX.EXSTDY" Value="52"/>
      <ItemData ItemOID="IT.EX.EXENDY" Value="52"/>
    </ItemGroupData>
    <ItemGroupData ItemGroupOID="IG.EX" data:ItemGroupDataSeq="108">
      <ItemData ItemOID="IT.EX.STUDYID" Value="CDISCPILOT01"/>
      <ItemData ItemOID="IT.EX.DOMAIN" Value="EX"/>
      <ItemData ItemOID="IT.EX.USUBJID" Value="CDISC002"/>
      <ItemData ItemOID="IT.EX.SPDEVID" Value="DEV0002"/>
      <ItemData ItemOID="IT.EX.EXSEQ" Value="53"/>
      <ItemData ItemOID="IT.EX.EXTRT" Value="ZANOMALINE"/>
      <ItemData ItemOID="IT.EX.EXDOSE" Value="54"/>
      <ItemData ItemOID="IT.EX.EXDOSU" Value="mg"/>
      <ItemData ItemOID="IT.EX.EXDOSFRM" Value="INJECTION"/>
      <ItemData ItemOID="IT.EX.EXDOSFRQ" Value="QD"/>
      <ItemData ItemOID="IT.EX.EXROUTE" Value="SUBCUTANEOUS"/>
      <ItemData ItemOID="IT.EX.EXLOT" Value="SDS580-359"/>
      <ItemData ItemOID="IT.EX.EPOCH" Value="TREATMENT"/>
      <ItemData ItemOID="IT.EX.EXSTDTC" Value="2013-01-06"/>
      <ItemData ItemOID="IT.EX.EXENDTC" Value="2013-01-06"/>
      <ItemData ItemOID="IT.EX.EXSTDY" Value="53"/>
      <ItemData ItemOID="IT.EX.EXENDY" Value="53"/>
    </ItemGroupData>
    <ItemGroupData ItemGroupOID="IG.EX" data:ItemGroupDataSeq="109">
      <ItemData ItemOID="IT.EX.STUDYID" Value="CDISCPILOT01"/>
      <ItemData ItemOID="IT.EX.DOMAIN" Value="EX"/>
      <ItemData ItemOID="IT.EX.USUBJID" Value="CDISC002"/>
      <ItemData ItemOID="IT.EX.SPDEVID" Value="DEV0002"/>
      <ItemData ItemOID="IT.EX.EXSEQ" Value="54"/>
      <ItemData ItemOID="IT.EX.EXTRT" Value="ZANOMALINE"/>
      <ItemData ItemOID="IT.EX.EXDOSE" Value="54"/>
      <ItemData ItemOID="IT.EX.EXDOSU" Value="mg"/>
      <ItemData ItemOID="IT.EX.EXDOSFRM" Value="INJECTION"/>
      <ItemData ItemOID="IT.EX.EXDOSFRQ" Value="QD"/>
      <ItemData ItemOID="IT.EX.EXROUTE" Value="SUBCUTANEOUS"/>
      <ItemData ItemOID="IT.EX.EXLOT" Value="SDS580-359"/>
      <ItemData ItemOID="IT.EX.EPOCH" Value="TREATMENT"/>
      <ItemData ItemOID="IT.EX.EXSTDTC" Value="2013-01-07"/>
      <ItemData ItemOID="IT.EX.EXENDTC" Value="2013-01-07"/>
      <ItemData ItemOID="IT.EX.EXSTDY" Value="54"/>
      <ItemData ItemOID="IT.EX.EXENDY" Value="54"/>
    </ItemGroupData>
    <ItemGroupData ItemGroupOID="IG.EX" data:ItemGroupDataSeq="110">
      <ItemData ItemOID="IT.EX.STUDYID" Value="CDISCPILOT01"/>
      <ItemData ItemOID="IT.EX.DOMAIN" Value="EX"/>
      <ItemData ItemOID="IT.EX.USUBJID" Value="CDISC002"/>
      <ItemData ItemOID="IT.EX.SPDEVID" Value="DEV0002"/>
      <ItemData ItemOID="IT.EX.EXSEQ" Value="55"/>
      <ItemData ItemOID="IT.EX.EXTRT" Value="ZANOMALINE"/>
      <ItemData ItemOID="IT.EX.EXDOSE" Value="54"/>
      <ItemData ItemOID="IT.EX.EXDOSU" Value="mg"/>
      <ItemData ItemOID="IT.EX.EXDOSFRM" Value="INJECTION"/>
      <ItemData ItemOID="IT.EX.EXDOSFRQ" Value="QD"/>
      <ItemData ItemOID="IT.EX.EXROUTE" Value="SUBCUTANEOUS"/>
      <ItemData ItemOID="IT.EX.EXLOT" Value="SDS580-359"/>
      <ItemData ItemOID="IT.EX.EPOCH" Value="TREATMENT"/>
      <ItemData ItemOID="IT.EX.EXSTDTC" Value="2013-01-08"/>
      <ItemData ItemOID="IT.EX.EXENDTC" Value="2013-01-08"/>
      <ItemData ItemOID="IT.EX.EXSTDY" Value="55"/>
      <ItemData ItemOID="IT.EX.EXENDY" Value="55"/>
    </ItemGroupData>
    <ItemGroupData ItemGroupOID="IG.EX" data:ItemGroupDataSeq="111">
      <ItemData ItemOID="IT.EX.STUDYID" Value="CDISCPILOT01"/>
      <ItemData ItemOID="IT.EX.DOMAIN" Value="EX"/>
      <ItemData ItemOID="IT.EX.USUBJID" Value="CDISC002"/>
      <ItemData ItemOID="IT.EX.SPDEVID" Value="DEV0002"/>
      <ItemData ItemOID="IT.EX.EXSEQ" Value="56"/>
      <ItemData ItemOID="IT.EX.EXTRT" Value="ZANOMALINE"/>
      <ItemData ItemOID="IT.EX.EXDOSE" Value="54"/>
      <ItemData ItemOID="IT.EX.EXDOSU" Value="mg"/>
      <ItemData ItemOID="IT.EX.EXDOSFRM" Value="INJECTION"/>
      <ItemData ItemOID="IT.EX.EXDOSFRQ" Value="QD"/>
      <ItemData ItemOID="IT.EX.EXROUTE" Value="SUBCUTANEOUS"/>
      <ItemData ItemOID="IT.EX.EXLOT" Value="SDS580-359"/>
      <ItemData ItemOID="IT.EX.EPOCH" Value="TREATMENT"/>
      <ItemData ItemOID="IT.EX.EXSTDTC" Value="2013-01-09"/>
      <ItemData ItemOID="IT.EX.EXENDTC" Value="2013-01-09"/>
      <ItemData ItemOID="IT.EX.EXSTDY" Value="56"/>
      <ItemData ItemOID="IT.EX.EXENDY" Value="56"/>
    </ItemGroupData>
    <ItemGroupData ItemGroupOID="IG.EX" data:ItemGroupDataSeq="112">
      <ItemData ItemOID="IT.EX.STUDYID" Value="CDISCPILOT01"/>
      <ItemData ItemOID="IT.EX.DOMAIN" Value="EX"/>
      <ItemData ItemOID="IT.EX.USUBJID" Value="CDISC002"/>
      <ItemData ItemOID="IT.EX.SPDEVID" Value="DEV0002"/>
      <ItemData ItemOID="IT.EX.EXSEQ" Value="57"/>
      <ItemData ItemOID="IT.EX.EXTRT" Value="ZANOMALINE"/>
      <ItemData ItemOID="IT.EX.EXDOSE" Value="54"/>
      <ItemData ItemOID="IT.EX.EXDOSU" Value="mg"/>
      <ItemData ItemOID="IT.EX.EXDOSFRM" Value="INJECTION"/>
      <ItemData ItemOID="IT.EX.EXDOSFRQ" Value="QD"/>
      <ItemData ItemOID="IT.EX.EXROUTE" Value="SUBCUTANEOUS"/>
      <ItemData ItemOID="IT.EX.EXLOT" Value="SDS580-359"/>
      <ItemData ItemOID="IT.EX.EPOCH" Value="TREATMENT"/>
      <ItemData ItemOID="IT.EX.EXSTDTC" Value="2013-01-10"/>
      <ItemData ItemOID="IT.EX.EXENDTC" Value="2013-01-10"/>
      <ItemData ItemOID="IT.EX.EXSTDY" Value="57"/>
      <ItemData ItemOID="IT.EX.EXENDY" Value="57"/>
    </ItemGroupData>
    <ItemGroupData ItemGroupOID="IG.EX" data:ItemGroupDataSeq="113">
      <ItemData ItemOID="IT.EX.STUDYID" Value="CDISCPILOT01"/>
      <ItemData ItemOID="IT.EX.DOMAIN" Value="EX"/>
      <ItemData ItemOID="IT.EX.USUBJID" Value="CDISC002"/>
      <ItemData ItemOID="IT.EX.SPDEVID" Value="DEV0002"/>
      <ItemData ItemOID="IT.EX.EXSEQ" Value="58"/>
      <ItemData ItemOID="IT.EX.EXTRT" Value="ZANOMALINE"/>
      <ItemData ItemOID="IT.EX.EXDOSE" Value="54"/>
      <ItemData ItemOID="IT.EX.EXDOSU" Value="mg"/>
      <ItemData ItemOID="IT.EX.EXDOSFRM" Value="INJECTION"/>
      <ItemData ItemOID="IT.EX.EXDOSFRQ" Value="QD"/>
      <ItemData ItemOID="IT.EX.EXROUTE" Value="SUBCUTANEOUS"/>
      <ItemData ItemOID="IT.EX.EXLOT" Value="SDS580-359"/>
      <ItemData ItemOID="IT.EX.EPOCH" Value="TREATMENT"/>
      <ItemData ItemOID="IT.EX.EXSTDTC" Value="2013-01-11"/>
      <ItemData ItemOID="IT.EX.EXENDTC" Value="2013-01-11"/>
      <ItemData ItemOID="IT.EX.EXSTDY" Value="58"/>
      <ItemData ItemOID="IT.EX.EXENDY" Value="58"/>
    </ItemGroupData>
    <ItemGroupData ItemGroupOID="IG.EX" data:ItemGroupDataSeq="114">
      <ItemData ItemOID="IT.EX.STUDYID" Value="CDISCPILOT01"/>
      <ItemData ItemOID="IT.EX.DOMAIN" Value="EX"/>
      <ItemData ItemOID="IT.EX.USUBJID" Value="CDISC002"/>
      <ItemData ItemOID="IT.EX.SPDEVID" Value="DEV0002"/>
      <ItemData ItemOID="IT.EX.EXSEQ" Value="59"/>
      <ItemData ItemOID="IT.EX.EXTRT" Value="ZANOMALINE"/>
      <ItemData ItemOID="IT.EX.EXDOSE" Value="54"/>
      <ItemData ItemOID="IT.EX.EXDOSU" Value="mg"/>
      <ItemData ItemOID="IT.EX.EXDOSFRM" Value="INJECTION"/>
      <ItemData ItemOID="IT.EX.EXDOSFRQ" Value="QD"/>
      <ItemData ItemOID="IT.EX.EXROUTE" Value="SUBCUTANEOUS"/>
      <ItemData ItemOID="IT.EX.EXLOT" Value="SDS580-359"/>
      <ItemData ItemOID="IT.EX.EPOCH" Value="TREATMENT"/>
      <ItemData ItemOID="IT.EX.EXSTDTC" Value="2013-01-12"/>
      <ItemData ItemOID="IT.EX.EXENDTC" Value="2013-01-12"/>
      <ItemData ItemOID="IT.EX.EXSTDY" Value="59"/>
      <ItemData ItemOID="IT.EX.EXENDY" Value="59"/>
    </ItemGroupData>
    <ItemGroupData ItemGroupOID="IG.EX" data:ItemGroupDataSeq="115">
      <ItemData ItemOID="IT.EX.STUDYID" Value="CDISCPILOT01"/>
      <ItemData ItemOID="IT.EX.DOMAIN" Value="EX"/>
      <ItemData ItemOID="IT.EX.USUBJID" Value="CDISC003"/>
      <ItemData ItemOID="IT.EX.SPDEVID" Value="DEV0003"/>
      <ItemData ItemOID="IT.EX.EXSEQ" Value="1"/>
      <ItemData ItemOID="IT.EX.EXTRT" Value="ZANOMALINE"/>
      <ItemData ItemOID="IT.EX.EXDOSE" Value="54"/>
      <ItemData ItemOID="IT.EX.EXDOSU" Value="mg"/>
      <ItemData ItemOID="IT.EX.EXDOSFRM" Value="INJECTION"/>
      <ItemData ItemOID="IT.EX.EXDOSFRQ" Value="QD"/>
      <ItemData ItemOID="IT.EX.EXROUTE" Value="SUBCUTANEOUS"/>
      <ItemData ItemOID="IT.EX.EXLOT" Value="SDS580-359"/>
      <ItemData ItemOID="IT.EX.EPOCH" Value="TREATMENT"/>
      <ItemData ItemOID="IT.EX.EXSTDTC" Value="2013-08-29"/>
      <ItemData ItemOID="IT.EX.EXENDTC" Value="2013-08-29"/>
      <ItemData ItemOID="IT.EX.EXSTDY" Value="1"/>
      <ItemData ItemOID="IT.EX.EXENDY" Value="1"/>
    </ItemGroupData>
    <ItemGroupData ItemGroupOID="IG.EX" data:ItemGroupDataSeq="116">
      <ItemData ItemOID="IT.EX.STUDYID" Value="CDISCPILOT01"/>
      <ItemData ItemOID="IT.EX.DOMAIN" Value="EX"/>
      <ItemData ItemOID="IT.EX.USUBJID" Value="CDISC003"/>
      <ItemData ItemOID="IT.EX.SPDEVID" Value="DEV0003"/>
      <ItemData ItemOID="IT.EX.EXSEQ" Value="2"/>
      <ItemData ItemOID="IT.EX.EXTRT" Value="ZANOMALINE"/>
      <ItemData ItemOID="IT.EX.EXDOSE" Value="54"/>
      <ItemData ItemOID="IT.EX.EXDOSU" Value="mg"/>
      <ItemData ItemOID="IT.EX.EXDOSFRM" Value="INJECTION"/>
      <ItemData ItemOID="IT.EX.EXDOSFRQ" Value="QD"/>
      <ItemData ItemOID="IT.EX.EXROUTE" Value="SUBCUTANEOUS"/>
      <ItemData ItemOID="IT.EX.EXLOT" Value="SDS580-359"/>
      <ItemData ItemOID="IT.EX.EPOCH" Value="TREATMENT"/>
      <ItemData ItemOID="IT.EX.EXSTDTC" Value="2013-08-30"/>
      <ItemData ItemOID="IT.EX.EXENDTC" Value="2013-08-30"/>
      <ItemData ItemOID="IT.EX.EXSTDY" Value="2"/>
      <ItemData ItemOID="IT.EX.EXENDY" Value="2"/>
    </ItemGroupData>
    <ItemGroupData ItemGroupOID="IG.EX" data:ItemGroupDataSeq="117">
      <ItemData ItemOID="IT.EX.STUDYID" Value="CDISCPILOT01"/>
      <ItemData ItemOID="IT.EX.DOMAIN" Value="EX"/>
      <ItemData ItemOID="IT.EX.USUBJID" Value="CDISC003"/>
      <ItemData ItemOID="IT.EX.SPDEVID" Value="DEV0003"/>
      <ItemData ItemOID="IT.EX.EXSEQ" Value="3"/>
      <ItemData ItemOID="IT.EX.EXTRT" Value="ZANOMALINE"/>
      <ItemData ItemOID="IT.EX.EXDOSE" Value="54"/>
      <ItemData ItemOID="IT.EX.EXDOSU" Value="mg"/>
      <ItemData ItemOID="IT.EX.EXDOSFRM" Value="INJECTION"/>
      <ItemData ItemOID="IT.EX.EXDOSFRQ" Value="QD"/>
      <ItemData ItemOID="IT.EX.EXROUTE" Value="SUBCUTANEOUS"/>
      <ItemData ItemOID="IT.EX.EXLOT" Value="SDS580-359"/>
      <ItemData ItemOID="IT.EX.EPOCH" Value="TREATMENT"/>
      <ItemData ItemOID="IT.EX.EXSTDTC" Value="2013-08-31"/>
      <ItemData ItemOID="IT.EX.EXENDTC" Value="2013-08-31"/>
      <ItemData ItemOID="IT.EX.EXSTDY" Value="3"/>
      <ItemData ItemOID="IT.EX.EXENDY" Value="3"/>
    </ItemGroupData>
    <ItemGroupData ItemGroupOID="IG.EX" data:ItemGroupDataSeq="118">
      <ItemData ItemOID="IT.EX.STUDYID" Value="CDISCPILOT01"/>
      <ItemData ItemOID="IT.EX.DOMAIN" Value="EX"/>
      <ItemData ItemOID="IT.EX.USUBJID" Value="CDISC003"/>
      <ItemData ItemOID="IT.EX.SPDEVID" Value="DEV0003"/>
      <ItemData ItemOID="IT.EX.EXSEQ" Value="4"/>
      <ItemData ItemOID="IT.EX.EXTRT" Value="ZANOMALINE"/>
      <ItemData ItemOID="IT.EX.EXDOSE" Value="54"/>
      <ItemData ItemOID="IT.EX.EXDOSU" Value="mg"/>
      <ItemData ItemOID="IT.EX.EXDOSFRM" Value="INJECTION"/>
      <ItemData ItemOID="IT.EX.EXDOSFRQ" Value="QD"/>
      <ItemData ItemOID="IT.EX.EXROUTE" Value="SUBCUTANEOUS"/>
      <ItemData ItemOID="IT.EX.EXLOT" Value="SDS580-359"/>
      <ItemData ItemOID="IT.EX.EPOCH" Value="TREATMENT"/>
      <ItemData ItemOID="IT.EX.EXSTDTC" Value="2013-09-01"/>
      <ItemData ItemOID="IT.EX.EXENDTC" Value="2013-09-01"/>
      <ItemData ItemOID="IT.EX.EXSTDY" Value="4"/>
      <ItemData ItemOID="IT.EX.EXENDY" Value="4"/>
    </ItemGroupData>
    <ItemGroupData ItemGroupOID="IG.EX" data:ItemGroupDataSeq="119">
      <ItemData ItemOID="IT.EX.STUDYID" Value="CDISCPILOT01"/>
      <ItemData ItemOID="IT.EX.DOMAIN" Value="EX"/>
      <ItemData ItemOID="IT.EX.USUBJID" Value="CDISC003"/>
      <ItemData ItemOID="IT.EX.SPDEVID" Value="DEV0003"/>
      <ItemData ItemOID="IT.EX.EXSEQ" Value="5"/>
      <ItemData ItemOID="IT.EX.EXTRT" Value="ZANOMALINE"/>
      <ItemData ItemOID="IT.EX.EXDOSE" Value="54"/>
      <ItemData ItemOID="IT.EX.EXDOSU" Value="mg"/>
      <ItemData ItemOID="IT.EX.EXDOSFRM" Value="INJECTION"/>
      <ItemData ItemOID="IT.EX.EXDOSFRQ" Value="QD"/>
      <ItemData ItemOID="IT.EX.EXROUTE" Value="SUBCUTANEOUS"/>
      <ItemData ItemOID="IT.EX.EXLOT" Value="SDS580-359"/>
      <ItemData ItemOID="IT.EX.EPOCH" Value="TREATMENT"/>
      <ItemData ItemOID="IT.EX.EXSTDTC" Value="2013-09-02"/>
      <ItemData ItemOID="IT.EX.EXENDTC" Value="2013-09-02"/>
      <ItemData ItemOID="IT.EX.EXSTDY" Value="5"/>
      <ItemData ItemOID="IT.EX.EXENDY" Value="5"/>
    </ItemGroupData>
    <ItemGroupData ItemGroupOID="IG.EX" data:ItemGroupDataSeq="120">
      <ItemData ItemOID="IT.EX.STUDYID" Value="CDISCPILOT01"/>
      <ItemData ItemOID="IT.EX.DOMAIN" Value="EX"/>
      <ItemData ItemOID="IT.EX.USUBJID" Value="CDISC003"/>
      <ItemData ItemOID="IT.EX.SPDEVID" Value="DEV0003"/>
      <ItemData ItemOID="IT.EX.EXSEQ" Value="6"/>
      <ItemData ItemOID="IT.EX.EXTRT" Value="ZANOMALINE"/>
      <ItemData ItemOID="IT.EX.EXDOSE" Value="54"/>
      <ItemData ItemOID="IT.EX.EXDOSU" Value="mg"/>
      <ItemData ItemOID="IT.EX.EXDOSFRM" Value="INJECTION"/>
      <ItemData ItemOID="IT.EX.EXDOSFRQ" Value="QD"/>
      <ItemData ItemOID="IT.EX.EXROUTE" Value="SUBCUTANEOUS"/>
      <ItemData ItemOID="IT.EX.EXLOT" Value="SDS580-359"/>
      <ItemData ItemOID="IT.EX.EPOCH" Value="TREATMENT"/>
      <ItemData ItemOID="IT.EX.EXSTDTC" Value="2013-09-03"/>
      <ItemData ItemOID="IT.EX.EXENDTC" Value="2013-09-03"/>
      <ItemData ItemOID="IT.EX.EXSTDY" Value="6"/>
      <ItemData ItemOID="IT.EX.EXENDY" Value="6"/>
    </ItemGroupData>
    <ItemGroupData ItemGroupOID="IG.EX" data:ItemGroupDataSeq="121">
      <ItemData ItemOID="IT.EX.STUDYID" Value="CDISCPILOT01"/>
      <ItemData ItemOID="IT.EX.DOMAIN" Value="EX"/>
      <ItemData ItemOID="IT.EX.USUBJID" Value="CDISC003"/>
      <ItemData ItemOID="IT.EX.SPDEVID" Value="DEV0003"/>
      <ItemData ItemOID="IT.EX.EXSEQ" Value="7"/>
      <ItemData ItemOID="IT.EX.EXTRT" Value="ZANOMALINE"/>
      <ItemData ItemOID="IT.EX.EXDOSE" Value="54"/>
      <ItemData ItemOID="IT.EX.EXDOSU" Value="mg"/>
      <ItemData ItemOID="IT.EX.EXDOSFRM" Value="INJECTION"/>
      <ItemData ItemOID="IT.EX.EXDOSFRQ" Value="QD"/>
      <ItemData ItemOID="IT.EX.EXROUTE" Value="SUBCUTANEOUS"/>
      <ItemData ItemOID="IT.EX.EXLOT" Value="SDS580-359"/>
      <ItemData ItemOID="IT.EX.EPOCH" Value="TREATMENT"/>
      <ItemData ItemOID="IT.EX.EXSTDTC" Value="2013-09-04"/>
      <ItemData ItemOID="IT.EX.EXENDTC" Value="2013-09-04"/>
      <ItemData ItemOID="IT.EX.EXSTDY" Value="7"/>
      <ItemData ItemOID="IT.EX.EXENDY" Value="7"/>
    </ItemGroupData>
    <ItemGroupData ItemGroupOID="IG.EX" data:ItemGroupDataSeq="122">
      <ItemData ItemOID="IT.EX.STUDYID" Value="CDISCPILOT01"/>
      <ItemData ItemOID="IT.EX.DOMAIN" Value="EX"/>
      <ItemData ItemOID="IT.EX.USUBJID" Value="CDISC003"/>
      <ItemData ItemOID="IT.EX.SPDEVID" Value="DEV0003"/>
      <ItemData ItemOID="IT.EX.EXSEQ" Value="8"/>
      <ItemData ItemOID="IT.EX.EXTRT" Value="ZANOMALINE"/>
      <ItemData ItemOID="IT.EX.EXDOSE" Value="54"/>
      <ItemData ItemOID="IT.EX.EXDOSU" Value="mg"/>
      <ItemData ItemOID="IT.EX.EXDOSFRM" Value="INJECTION"/>
      <ItemData ItemOID="IT.EX.EXDOSFRQ" Value="QD"/>
      <ItemData ItemOID="IT.EX.EXROUTE" Value="SUBCUTANEOUS"/>
      <ItemData ItemOID="IT.EX.EXLOT" Value="SDS580-359"/>
      <ItemData ItemOID="IT.EX.EPOCH" Value="TREATMENT"/>
      <ItemData ItemOID="IT.EX.EXSTDTC" Value="2013-09-05"/>
      <ItemData ItemOID="IT.EX.EXENDTC" Value="2013-09-05"/>
      <ItemData ItemOID="IT.EX.EXSTDY" Value="8"/>
      <ItemData ItemOID="IT.EX.EXENDY" Value="8"/>
    </ItemGroupData>
    <ItemGroupData ItemGroupOID="IG.EX" data:ItemGroupDataSeq="123">
      <ItemData ItemOID="IT.EX.STUDYID" Value="CDISCPILOT01"/>
      <ItemData ItemOID="IT.EX.DOMAIN" Value="EX"/>
      <ItemData ItemOID="IT.EX.USUBJID" Value="CDISC003"/>
      <ItemData ItemOID="IT.EX.SPDEVID" Value="DEV0003"/>
      <ItemData ItemOID="IT.EX.EXSEQ" Value="9"/>
      <ItemData ItemOID="IT.EX.EXTRT" Value="ZANOMALINE"/>
      <ItemData ItemOID="IT.EX.EXDOSE" Value="54"/>
      <ItemData ItemOID="IT.EX.EXDOSU" Value="mg"/>
      <ItemData ItemOID="IT.EX.EXDOSFRM" Value="INJECTION"/>
      <ItemData ItemOID="IT.EX.EXDOSFRQ" Value="QD"/>
      <ItemData ItemOID="IT.EX.EXROUTE" Value="SUBCUTANEOUS"/>
      <ItemData ItemOID="IT.EX.EXLOT" Value="SDS580-359"/>
      <ItemData ItemOID="IT.EX.EPOCH" Value="TREATMENT"/>
      <ItemData ItemOID="IT.EX.EXSTDTC" Value="2013-09-06"/>
      <ItemData ItemOID="IT.EX.EXENDTC" Value="2013-09-06"/>
      <ItemData ItemOID="IT.EX.EXSTDY" Value="9"/>
      <ItemData ItemOID="IT.EX.EXENDY" Value="9"/>
    </ItemGroupData>
    <ItemGroupData ItemGroupOID="IG.EX" data:ItemGroupDataSeq="124">
      <ItemData ItemOID="IT.EX.STUDYID" Value="CDISCPILOT01"/>
      <ItemData ItemOID="IT.EX.DOMAIN" Value="EX"/>
      <ItemData ItemOID="IT.EX.USUBJID" Value="CDISC003"/>
      <ItemData ItemOID="IT.EX.SPDEVID" Value="DEV0003"/>
      <ItemData ItemOID="IT.EX.EXSEQ" Value="10"/>
      <ItemData ItemOID="IT.EX.EXTRT" Value="ZANOMALINE"/>
      <ItemData ItemOID="IT.EX.EXDOSE" Value="54"/>
      <ItemData ItemOID="IT.EX.EXDOSU" Value="mg"/>
      <ItemData ItemOID="IT.EX.EXDOSFRM" Value="INJECTION"/>
      <ItemData ItemOID="IT.EX.EXDOSFRQ" Value="QD"/>
      <ItemData ItemOID="IT.EX.EXROUTE" Value="SUBCUTANEOUS"/>
      <ItemData ItemOID="IT.EX.EXLOT" Value="SDS580-359"/>
      <ItemData ItemOID="IT.EX.EPOCH" Value="TREATMENT"/>
      <ItemData ItemOID="IT.EX.EXSTDTC" Value="2013-09-07"/>
      <ItemData ItemOID="IT.EX.EXENDTC" Value="2013-09-07"/>
      <ItemData ItemOID="IT.EX.EXSTDY" Value="10"/>
      <ItemData ItemOID="IT.EX.EXENDY" Value="10"/>
    </ItemGroupData>
    <ItemGroupData ItemGroupOID="IG.EX" data:ItemGroupDataSeq="125">
      <ItemData ItemOID="IT.EX.STUDYID" Value="CDISCPILOT01"/>
      <ItemData ItemOID="IT.EX.DOMAIN" Value="EX"/>
      <ItemData ItemOID="IT.EX.USUBJID" Value="CDISC003"/>
      <ItemData ItemOID="IT.EX.SPDEVID" Value="DEV0003"/>
      <ItemData ItemOID="IT.EX.EXSEQ" Value="11"/>
      <ItemData ItemOID="IT.EX.EXTRT" Value="ZANOMALINE"/>
      <ItemData ItemOID="IT.EX.EXDOSE" Value="54"/>
      <ItemData ItemOID="IT.EX.EXDOSU" Value="mg"/>
      <ItemData ItemOID="IT.EX.EXDOSFRM" Value="INJECTION"/>
      <ItemData ItemOID="IT.EX.EXDOSFRQ" Value="QD"/>
      <ItemData ItemOID="IT.EX.EXROUTE" Value="SUBCUTANEOUS"/>
      <ItemData ItemOID="IT.EX.EXLOT" Value="SDS580-359"/>
      <ItemData ItemOID="IT.EX.EPOCH" Value="TREATMENT"/>
      <ItemData ItemOID="IT.EX.EXSTDTC" Value="2013-09-08"/>
      <ItemData ItemOID="IT.EX.EXENDTC" Value="2013-09-08"/>
      <ItemData ItemOID="IT.EX.EXSTDY" Value="11"/>
      <ItemData ItemOID="IT.EX.EXENDY" Value="11"/>
    </ItemGroupData>
    <ItemGroupData ItemGroupOID="IG.EX" data:ItemGroupDataSeq="126">
      <ItemData ItemOID="IT.EX.STUDYID" Value="CDISCPILOT01"/>
      <ItemData ItemOID="IT.EX.DOMAIN" Value="EX"/>
      <ItemData ItemOID="IT.EX.USUBJID" Value="CDISC003"/>
      <ItemData ItemOID="IT.EX.SPDEVID" Value="DEV0003"/>
      <ItemData ItemOID="IT.EX.EXSEQ" Value="12"/>
      <ItemData ItemOID="IT.EX.EXTRT" Value="ZANOMALINE"/>
      <ItemData ItemOID="IT.EX.EXDOSE" Value="54"/>
      <ItemData ItemOID="IT.EX.EXDOSU" Value="mg"/>
      <ItemData ItemOID="IT.EX.EXDOSFRM" Value="INJECTION"/>
      <ItemData ItemOID="IT.EX.EXDOSFRQ" Value="QD"/>
      <ItemData ItemOID="IT.EX.EXROUTE" Value="SUBCUTANEOUS"/>
      <ItemData ItemOID="IT.EX.EXLOT" Value="SDS580-359"/>
      <ItemData ItemOID="IT.EX.EPOCH" Value="TREATMENT"/>
      <ItemData ItemOID="IT.EX.EXSTDTC" Value="2013-09-09"/>
      <ItemData ItemOID="IT.EX.EXENDTC" Value="2013-09-09"/>
      <ItemData ItemOID="IT.EX.EXSTDY" Value="12"/>
      <ItemData ItemOID="IT.EX.EXENDY" Value="12"/>
    </ItemGroupData>
    <ItemGroupData ItemGroupOID="IG.EX" data:ItemGroupDataSeq="127">
      <ItemData ItemOID="IT.EX.STUDYID" Value="CDISCPILOT01"/>
      <ItemData ItemOID="IT.EX.DOMAIN" Value="EX"/>
      <ItemData ItemOID="IT.EX.USUBJID" Value="CDISC003"/>
      <ItemData ItemOID="IT.EX.SPDEVID" Value="DEV0003"/>
      <ItemData ItemOID="IT.EX.EXSEQ" Value="13"/>
      <ItemData ItemOID="IT.EX.EXTRT" Value="ZANOMALINE"/>
      <ItemData ItemOID="IT.EX.EXDOSE" Value="54"/>
      <ItemData ItemOID="IT.EX.EXDOSU" Value="mg"/>
      <ItemData ItemOID="IT.EX.EXDOSFRM" Value="INJECTION"/>
      <ItemData ItemOID="IT.EX.EXDOSFRQ" Value="QD"/>
      <ItemData ItemOID="IT.EX.EXROUTE" Value="SUBCUTANEOUS"/>
      <ItemData ItemOID="IT.EX.EXLOT" Value="SDS580-359"/>
      <ItemData ItemOID="IT.EX.EPOCH" Value="TREATMENT"/>
      <ItemData ItemOID="IT.EX.EXSTDTC" Value="2013-09-10"/>
      <ItemData ItemOID="IT.EX.EXENDTC" Value="2013-09-10"/>
      <ItemData ItemOID="IT.EX.EXSTDY" Value="13"/>
      <ItemData ItemOID="IT.EX.EXENDY" Value="13"/>
    </ItemGroupData>
    <ItemGroupData ItemGroupOID="IG.EX" data:ItemGroupDataSeq="128">
      <ItemData ItemOID="IT.EX.STUDYID" Value="CDISCPILOT01"/>
      <ItemData ItemOID="IT.EX.DOMAIN" Value="EX"/>
      <ItemData ItemOID="IT.EX.USUBJID" Value="CDISC003"/>
      <ItemData ItemOID="IT.EX.SPDEVID" Value="DEV0003"/>
      <ItemData ItemOID="IT.EX.EXSEQ" Value="14"/>
      <ItemData ItemOID="IT.EX.EXTRT" Value="ZANOMALINE"/>
      <ItemData ItemOID="IT.EX.EXDOSE" Value="54"/>
      <ItemData ItemOID="IT.EX.EXDOSU" Value="mg"/>
      <ItemData ItemOID="IT.EX.EXDOSFRM" Value="INJECTION"/>
      <ItemData ItemOID="IT.EX.EXDOSFRQ" Value="QD"/>
      <ItemData ItemOID="IT.EX.EXROUTE" Value="SUBCUTANEOUS"/>
      <ItemData ItemOID="IT.EX.EXLOT" Value="SDS580-359"/>
      <ItemData ItemOID="IT.EX.EPOCH" Value="TREATMENT"/>
      <ItemData ItemOID="IT.EX.EXSTDTC" Value="2013-09-11"/>
      <ItemData ItemOID="IT.EX.EXENDTC" Value="2013-09-11"/>
      <ItemData ItemOID="IT.EX.EXSTDY" Value="14"/>
      <ItemData ItemOID="IT.EX.EXENDY" Value="14"/>
    </ItemGroupData>
    <ItemGroupData ItemGroupOID="IG.EX" data:ItemGroupDataSeq="129">
      <ItemData ItemOID="IT.EX.STUDYID" Value="CDISCPILOT01"/>
      <ItemData ItemOID="IT.EX.DOMAIN" Value="EX"/>
      <ItemData ItemOID="IT.EX.USUBJID" Value="CDISC003"/>
      <ItemData ItemOID="IT.EX.SPDEVID" Value="DEV0003"/>
      <ItemData ItemOID="IT.EX.EXSEQ" Value="15"/>
      <ItemData ItemOID="IT.EX.EXTRT" Value="ZANOMALINE"/>
      <ItemData ItemOID="IT.EX.EXDOSE" Value="54"/>
      <ItemData ItemOID="IT.EX.EXDOSU" Value="mg"/>
      <ItemData ItemOID="IT.EX.EXDOSFRM" Value="INJECTION"/>
      <ItemData ItemOID="IT.EX.EXDOSFRQ" Value="QD"/>
      <ItemData ItemOID="IT.EX.EXROUTE" Value="SUBCUTANEOUS"/>
      <ItemData ItemOID="IT.EX.EXLOT" Value="SDS580-359"/>
      <ItemData ItemOID="IT.EX.EPOCH" Value="TREATMENT"/>
      <ItemData ItemOID="IT.EX.EXSTDTC" Value="2013-09-12"/>
      <ItemData ItemOID="IT.EX.EXENDTC" Value="2013-09-12"/>
      <ItemData ItemOID="IT.EX.EXSTDY" Value="15"/>
      <ItemData ItemOID="IT.EX.EXENDY" Value="15"/>
    </ItemGroupData>
    <ItemGroupData ItemGroupOID="IG.EX" data:ItemGroupDataSeq="130">
      <ItemData ItemOID="IT.EX.STUDYID" Value="CDISCPILOT01"/>
      <ItemData ItemOID="IT.EX.DOMAIN" Value="EX"/>
      <ItemData ItemOID="IT.EX.USUBJID" Value="CDISC003"/>
      <ItemData ItemOID="IT.EX.SPDEVID" Value="DEV0003"/>
      <ItemData ItemOID="IT.EX.EXSEQ" Value="16"/>
      <ItemData ItemOID="IT.EX.EXTRT" Value="ZANOMALINE"/>
      <ItemData ItemOID="IT.EX.EXDOSE" Value="54"/>
      <ItemData ItemOID="IT.EX.EXDOSU" Value="mg"/>
      <ItemData ItemOID="IT.EX.EXDOSFRM" Value="INJECTION"/>
      <ItemData ItemOID="IT.EX.EXDOSFRQ" Value="QD"/>
      <ItemData ItemOID="IT.EX.EXROUTE" Value="SUBCUTANEOUS"/>
      <ItemData ItemOID="IT.EX.EXLOT" Value="SDS580-359"/>
      <ItemData ItemOID="IT.EX.EPOCH" Value="TREATMENT"/>
      <ItemData ItemOID="IT.EX.EXSTDTC" Value="2013-09-13"/>
      <ItemData ItemOID="IT.EX.EXENDTC" Value="2013-09-13"/>
      <ItemData ItemOID="IT.EX.EXSTDY" Value="16"/>
      <ItemData ItemOID="IT.EX.EXENDY" Value="16"/>
    </ItemGroupData>
    <ItemGroupData ItemGroupOID="IG.EX" data:ItemGroupDataSeq="131">
      <ItemData ItemOID="IT.EX.STUDYID" Value="CDISCPILOT01"/>
      <ItemData ItemOID="IT.EX.DOMAIN" Value="EX"/>
      <ItemData ItemOID="IT.EX.USUBJID" Value="CDISC003"/>
      <ItemData ItemOID="IT.EX.SPDEVID" Value="DEV0003"/>
      <ItemData ItemOID="IT.EX.EXSEQ" Value="17"/>
      <ItemData ItemOID="IT.EX.EXTRT" Value="ZANOMALINE"/>
      <ItemData ItemOID="IT.EX.EXDOSE" Value="54"/>
      <ItemData ItemOID="IT.EX.EXDOSU" Value="mg"/>
      <ItemData ItemOID="IT.EX.EXDOSFRM" Value="INJECTION"/>
      <ItemData ItemOID="IT.EX.EXDOSFRQ" Value="QD"/>
      <ItemData ItemOID="IT.EX.EXROUTE" Value="SUBCUTANEOUS"/>
      <ItemData ItemOID="IT.EX.EXLOT" Value="SDS580-359"/>
      <ItemData ItemOID="IT.EX.EPOCH" Value="TREATMENT"/>
      <ItemData ItemOID="IT.EX.EXSTDTC" Value="2013-09-14"/>
      <ItemData ItemOID="IT.EX.EXENDTC" Value="2013-09-14"/>
      <ItemData ItemOID="IT.EX.EXSTDY" Value="17"/>
      <ItemData ItemOID="IT.EX.EXENDY" Value="17"/>
    </ItemGroupData>
    <ItemGroupData ItemGroupOID="IG.EX" data:ItemGroupDataSeq="132">
      <ItemData ItemOID="IT.EX.STUDYID" Value="CDISCPILOT01"/>
      <ItemData ItemOID="IT.EX.DOMAIN" Value="EX"/>
      <ItemData ItemOID="IT.EX.USUBJID" Value="CDISC003"/>
      <ItemData ItemOID="IT.EX.SPDEVID" Value="DEV0003"/>
      <ItemData ItemOID="IT.EX.EXSEQ" Value="18"/>
      <ItemData ItemOID="IT.EX.EXTRT" Value="ZANOMALINE"/>
      <ItemData ItemOID="IT.EX.EXDOSE" Value="54"/>
      <ItemData ItemOID="IT.EX.EXDOSU" Value="mg"/>
      <ItemData ItemOID="IT.EX.EXDOSFRM" Value="INJECTION"/>
      <ItemData ItemOID="IT.EX.EXDOSFRQ" Value="QD"/>
      <ItemData ItemOID="IT.EX.EXROUTE" Value="SUBCUTANEOUS"/>
      <ItemData ItemOID="IT.EX.EXLOT" Value="SDS580-359"/>
      <ItemData ItemOID="IT.EX.EPOCH" Value="TREATMENT"/>
      <ItemData ItemOID="IT.EX.EXSTDTC" Value="2013-09-15"/>
      <ItemData ItemOID="IT.EX.EXENDTC" Value="2013-09-15"/>
      <ItemData ItemOID="IT.EX.EXSTDY" Value="18"/>
      <ItemData ItemOID="IT.EX.EXENDY" Value="18"/>
    </ItemGroupData>
    <ItemGroupData ItemGroupOID="IG.EX" data:ItemGroupDataSeq="133">
      <ItemData ItemOID="IT.EX.STUDYID" Value="CDISCPILOT01"/>
      <ItemData ItemOID="IT.EX.DOMAIN" Value="EX"/>
      <ItemData ItemOID="IT.EX.USUBJID" Value="CDISC003"/>
      <ItemData ItemOID="IT.EX.SPDEVID" Value="DEV0003"/>
      <ItemData ItemOID="IT.EX.EXSEQ" Value="19"/>
      <ItemData ItemOID="IT.EX.EXTRT" Value="ZANOMALINE"/>
      <ItemData ItemOID="IT.EX.EXDOSE" Value="81"/>
      <ItemData ItemOID="IT.EX.EXDOSU" Value="mg"/>
      <ItemData ItemOID="IT.EX.EXDOSFRM" Value="INJECTION"/>
      <ItemData ItemOID="IT.EX.EXDOSFRQ" Value="QD"/>
      <ItemData ItemOID="IT.EX.EXROUTE" Value="SUBCUTANEOUS"/>
      <ItemData ItemOID="IT.EX.EXLOT" Value="SDS580-359"/>
      <ItemData ItemOID="IT.EX.EPOCH" Value="TREATMENT"/>
      <ItemData ItemOID="IT.EX.EXSTDTC" Value="2013-09-16"/>
      <ItemData ItemOID="IT.EX.EXENDTC" Value="2013-09-16"/>
      <ItemData ItemOID="IT.EX.EXSTDY" Value="19"/>
      <ItemData ItemOID="IT.EX.EXENDY" Value="19"/>
    </ItemGroupData>
    <ItemGroupData ItemGroupOID="IG.EX" data:ItemGroupDataSeq="134">
      <ItemData ItemOID="IT.EX.STUDYID" Value="CDISCPILOT01"/>
      <ItemData ItemOID="IT.EX.DOMAIN" Value="EX"/>
      <ItemData ItemOID="IT.EX.USUBJID" Value="CDISC003"/>
      <ItemData ItemOID="IT.EX.SPDEVID" Value="DEV0003"/>
      <ItemData ItemOID="IT.EX.EXSEQ" Value="20"/>
      <ItemData ItemOID="IT.EX.EXTRT" Value="ZANOMALINE"/>
      <ItemData ItemOID="IT.EX.EXDOSE" Value="81"/>
      <ItemData ItemOID="IT.EX.EXDOSU" Value="mg"/>
      <ItemData ItemOID="IT.EX.EXDOSFRM" Value="INJECTION"/>
      <ItemData ItemOID="IT.EX.EXDOSFRQ" Value="QD"/>
      <ItemData ItemOID="IT.EX.EXROUTE" Value="SUBCUTANEOUS"/>
      <ItemData ItemOID="IT.EX.EXLOT" Value="SDS580-359"/>
      <ItemData ItemOID="IT.EX.EPOCH" Value="TREATMENT"/>
      <ItemData ItemOID="IT.EX.EXSTDTC" Value="2013-09-17"/>
      <ItemData ItemOID="IT.EX.EXENDTC" Value="2013-09-17"/>
      <ItemData ItemOID="IT.EX.EXSTDY" Value="20"/>
      <ItemData ItemOID="IT.EX.EXENDY" Value="20"/>
    </ItemGroupData>
    <ItemGroupData ItemGroupOID="IG.EX" data:ItemGroupDataSeq="135">
      <ItemData ItemOID="IT.EX.STUDYID" Value="CDISCPILOT01"/>
      <ItemData ItemOID="IT.EX.DOMAIN" Value="EX"/>
      <ItemData ItemOID="IT.EX.USUBJID" Value="CDISC003"/>
      <ItemData ItemOID="IT.EX.SPDEVID" Value="DEV0003"/>
      <ItemData ItemOID="IT.EX.EXSEQ" Value="21"/>
      <ItemData ItemOID="IT.EX.EXTRT" Value="ZANOMALINE"/>
      <ItemData ItemOID="IT.EX.EXDOSE" Value="81"/>
      <ItemData ItemOID="IT.EX.EXDOSU" Value="mg"/>
      <ItemData ItemOID="IT.EX.EXDOSFRM" Value="INJECTION"/>
      <ItemData ItemOID="IT.EX.EXDOSFRQ" Value="QD"/>
      <ItemData ItemOID="IT.EX.EXROUTE" Value="SUBCUTANEOUS"/>
      <ItemData ItemOID="IT.EX.EXLOT" Value="SDS580-359"/>
      <ItemData ItemOID="IT.EX.EPOCH" Value="TREATMENT"/>
      <ItemData ItemOID="IT.EX.EXSTDTC" Value="2013-09-18"/>
      <ItemData ItemOID="IT.EX.EXENDTC" Value="2013-09-18"/>
      <ItemData ItemOID="IT.EX.EXSTDY" Value="21"/>
      <ItemData ItemOID="IT.EX.EXENDY" Value="21"/>
    </ItemGroupData>
    <ItemGroupData ItemGroupOID="IG.EX" data:ItemGroupDataSeq="136">
      <ItemData ItemOID="IT.EX.STUDYID" Value="CDISCPILOT01"/>
      <ItemData ItemOID="IT.EX.DOMAIN" Value="EX"/>
      <ItemData ItemOID="IT.EX.USUBJID" Value="CDISC003"/>
      <ItemData ItemOID="IT.EX.SPDEVID" Value="DEV0003"/>
      <ItemData ItemOID="IT.EX.EXSEQ" Value="22"/>
      <ItemData ItemOID="IT.EX.EXTRT" Value="ZANOMALINE"/>
      <ItemData ItemOID="IT.EX.EXDOSE" Value="81"/>
      <ItemData ItemOID="IT.EX.EXDOSU" Value="mg"/>
      <ItemData ItemOID="IT.EX.EXDOSFRM" Value="INJECTION"/>
      <ItemData ItemOID="IT.EX.EXDOSFRQ" Value="QD"/>
      <ItemData ItemOID="IT.EX.EXROUTE" Value="SUBCUTANEOUS"/>
      <ItemData ItemOID="IT.EX.EXLOT" Value="SDS580-359"/>
      <ItemData ItemOID="IT.EX.EPOCH" Value="TREATMENT"/>
      <ItemData ItemOID="IT.EX.EXSTDTC" Value="2013-09-19"/>
      <ItemData ItemOID="IT.EX.EXENDTC" Value="2013-09-19"/>
      <ItemData ItemOID="IT.EX.EXSTDY" Value="22"/>
      <ItemData ItemOID="IT.EX.EXENDY" Value="22"/>
    </ItemGroupData>
    <ItemGroupData ItemGroupOID="IG.EX" data:ItemGroupDataSeq="137">
      <ItemData ItemOID="IT.EX.STUDYID" Value="CDISCPILOT01"/>
      <ItemData ItemOID="IT.EX.DOMAIN" Value="EX"/>
      <ItemData ItemOID="IT.EX.USUBJID" Value="CDISC003"/>
      <ItemData ItemOID="IT.EX.SPDEVID" Value="DEV0003"/>
      <ItemData ItemOID="IT.EX.EXSEQ" Value="23"/>
      <ItemData ItemOID="IT.EX.EXTRT" Value="ZANOMALINE"/>
      <ItemData ItemOID="IT.EX.EXDOSE" Value="81"/>
      <ItemData ItemOID="IT.EX.EXDOSU" Value="mg"/>
      <ItemData ItemOID="IT.EX.EXDOSFRM" Value="INJECTION"/>
      <ItemData ItemOID="IT.EX.EXDOSFRQ" Value="QD"/>
      <ItemData ItemOID="IT.EX.EXROUTE" Value="SUBCUTANEOUS"/>
      <ItemData ItemOID="IT.EX.EXLOT" Value="SDS580-359"/>
      <ItemData ItemOID="IT.EX.EPOCH" Value="TREATMENT"/>
      <ItemData ItemOID="IT.EX.EXSTDTC" Value="2013-09-20"/>
      <ItemData ItemOID="IT.EX.EXENDTC" Value="2013-09-20"/>
      <ItemData ItemOID="IT.EX.EXSTDY" Value="23"/>
      <ItemData ItemOID="IT.EX.EXENDY" Value="23"/>
    </ItemGroupData>
    <ItemGroupData ItemGroupOID="IG.EX" data:ItemGroupDataSeq="138">
      <ItemData ItemOID="IT.EX.STUDYID" Value="CDISCPILOT01"/>
      <ItemData ItemOID="IT.EX.DOMAIN" Value="EX"/>
      <ItemData ItemOID="IT.EX.USUBJID" Value="CDISC003"/>
      <ItemData ItemOID="IT.EX.SPDEVID" Value="DEV0003"/>
      <ItemData ItemOID="IT.EX.EXSEQ" Value="24"/>
      <ItemData ItemOID="IT.EX.EXTRT" Value="ZANOMALINE"/>
      <ItemData ItemOID="IT.EX.EXDOSE" Value="81"/>
      <ItemData ItemOID="IT.EX.EXDOSU" Value="mg"/>
      <ItemData ItemOID="IT.EX.EXDOSFRM" Value="INJECTION"/>
      <ItemData ItemOID="IT.EX.EXDOSFRQ" Value="QD"/>
      <ItemData ItemOID="IT.EX.EXROUTE" Value="SUBCUTANEOUS"/>
      <ItemData ItemOID="IT.EX.EXLOT" Value="SDS580-359"/>
      <ItemData ItemOID="IT.EX.EPOCH" Value="TREATMENT"/>
      <ItemData ItemOID="IT.EX.EXSTDTC" Value="2013-09-21"/>
      <ItemData ItemOID="IT.EX.EXENDTC" Value="2013-09-21"/>
      <ItemData ItemOID="IT.EX.EXSTDY" Value="24"/>
      <ItemData ItemOID="IT.EX.EXENDY" Value="24"/>
    </ItemGroupData>
    <ItemGroupData ItemGroupOID="IG.EX" data:ItemGroupDataSeq="139">
      <ItemData ItemOID="IT.EX.STUDYID" Value="CDISCPILOT01"/>
      <ItemData ItemOID="IT.EX.DOMAIN" Value="EX"/>
      <ItemData ItemOID="IT.EX.USUBJID" Value="CDISC003"/>
      <ItemData ItemOID="IT.EX.SPDEVID" Value="DEV0003"/>
      <ItemData ItemOID="IT.EX.EXSEQ" Value="25"/>
      <ItemData ItemOID="IT.EX.EXTRT" Value="ZANOMALINE"/>
      <ItemData ItemOID="IT.EX.EXDOSE" Value="81"/>
      <ItemData ItemOID="IT.EX.EXDOSU" Value="mg"/>
      <ItemData ItemOID="IT.EX.EXDOSFRM" Value="INJECTION"/>
      <ItemData ItemOID="IT.EX.EXDOSFRQ" Value="QD"/>
      <ItemData ItemOID="IT.EX.EXROUTE" Value="SUBCUTANEOUS"/>
      <ItemData ItemOID="IT.EX.EXLOT" Value="SDS580-359"/>
      <ItemData ItemOID="IT.EX.EPOCH" Value="TREATMENT"/>
      <ItemData ItemOID="IT.EX.EXSTDTC" Value="2013-09-22"/>
      <ItemData ItemOID="IT.EX.EXENDTC" Value="2013-09-22"/>
      <ItemData ItemOID="IT.EX.EXSTDY" Value="25"/>
      <ItemData ItemOID="IT.EX.EXENDY" Value="25"/>
    </ItemGroupData>
    <ItemGroupData ItemGroupOID="IG.EX" data:ItemGroupDataSeq="140">
      <ItemData ItemOID="IT.EX.STUDYID" Value="CDISCPILOT01"/>
      <ItemData ItemOID="IT.EX.DOMAIN" Value="EX"/>
      <ItemData ItemOID="IT.EX.USUBJID" Value="CDISC003"/>
      <ItemData ItemOID="IT.EX.SPDEVID" Value="DEV0003"/>
      <ItemData ItemOID="IT.EX.EXSEQ" Value="26"/>
      <ItemData ItemOID="IT.EX.EXTRT" Value="ZANOMALINE"/>
      <ItemData ItemOID="IT.EX.EXDOSE" Value="81"/>
      <ItemData ItemOID="IT.EX.EXDOSU" Value="mg"/>
      <ItemData ItemOID="IT.EX.EXDOSFRM" Value="INJECTION"/>
      <ItemData ItemOID="IT.EX.EXDOSFRQ" Value="QD"/>
      <ItemData ItemOID="IT.EX.EXROUTE" Value="SUBCUTANEOUS"/>
      <ItemData ItemOID="IT.EX.EXLOT" Value="SDS580-359"/>
      <ItemData ItemOID="IT.EX.EPOCH" Value="TREATMENT"/>
      <ItemData ItemOID="IT.EX.EXSTDTC" Value="2013-09-23"/>
      <ItemData ItemOID="IT.EX.EXENDTC" Value="2013-09-23"/>
      <ItemData ItemOID="IT.EX.EXSTDY" Value="26"/>
      <ItemData ItemOID="IT.EX.EXENDY" Value="26"/>
    </ItemGroupData>
    <ItemGroupData ItemGroupOID="IG.EX" data:ItemGroupDataSeq="141">
      <ItemData ItemOID="IT.EX.STUDYID" Value="CDISCPILOT01"/>
      <ItemData ItemOID="IT.EX.DOMAIN" Value="EX"/>
      <ItemData ItemOID="IT.EX.USUBJID" Value="CDISC003"/>
      <ItemData ItemOID="IT.EX.SPDEVID" Value="DEV0003"/>
      <ItemData ItemOID="IT.EX.EXSEQ" Value="27"/>
      <ItemData ItemOID="IT.EX.EXTRT" Value="ZANOMALINE"/>
      <ItemData ItemOID="IT.EX.EXDOSE" Value="81"/>
      <ItemData ItemOID="IT.EX.EXDOSU" Value="mg"/>
      <ItemData ItemOID="IT.EX.EXDOSFRM" Value="INJECTION"/>
      <ItemData ItemOID="IT.EX.EXDOSFRQ" Value="QD"/>
      <ItemData ItemOID="IT.EX.EXROUTE" Value="SUBCUTANEOUS"/>
      <ItemData ItemOID="IT.EX.EXLOT" Value="SDS580-359"/>
      <ItemData ItemOID="IT.EX.EPOCH" Value="TREATMENT"/>
      <ItemData ItemOID="IT.EX.EXSTDTC" Value="2013-09-24"/>
      <ItemData ItemOID="IT.EX.EXENDTC" Value="2013-09-24"/>
      <ItemData ItemOID="IT.EX.EXSTDY" Value="27"/>
      <ItemData ItemOID="IT.EX.EXENDY" Value="27"/>
    </ItemGroupData>
    <ItemGroupData ItemGroupOID="IG.EX" data:ItemGroupDataSeq="142">
      <ItemData ItemOID="IT.EX.STUDYID" Value="CDISCPILOT01"/>
      <ItemData ItemOID="IT.EX.DOMAIN" Value="EX"/>
      <ItemData ItemOID="IT.EX.USUBJID" Value="CDISC003"/>
      <ItemData ItemOID="IT.EX.SPDEVID" Value="DEV0003"/>
      <ItemData ItemOID="IT.EX.EXSEQ" Value="28"/>
      <ItemData ItemOID="IT.EX.EXTRT" Value="ZANOMALINE"/>
      <ItemData ItemOID="IT.EX.EXDOSE" Value="81"/>
      <ItemData ItemOID="IT.EX.EXDOSU" Value="mg"/>
      <ItemData ItemOID="IT.EX.EXDOSFRM" Value="INJECTION"/>
      <ItemData ItemOID="IT.EX.EXDOSFRQ" Value="QD"/>
      <ItemData ItemOID="IT.EX.EXROUTE" Value="SUBCUTANEOUS"/>
      <ItemData ItemOID="IT.EX.EXLOT" Value="SDS580-359"/>
      <ItemData ItemOID="IT.EX.EPOCH" Value="TREATMENT"/>
      <ItemData ItemOID="IT.EX.EXSTDTC" Value="2013-09-25"/>
      <ItemData ItemOID="IT.EX.EXENDTC" Value="2013-09-25"/>
      <ItemData ItemOID="IT.EX.EXSTDY" Value="28"/>
      <ItemData ItemOID="IT.EX.EXENDY" Value="28"/>
    </ItemGroupData>
    <ItemGroupData ItemGroupOID="IG.EX" data:ItemGroupDataSeq="143">
      <ItemData ItemOID="IT.EX.STUDYID" Value="CDISCPILOT01"/>
      <ItemData ItemOID="IT.EX.DOMAIN" Value="EX"/>
      <ItemData ItemOID="IT.EX.USUBJID" Value="CDISC003"/>
      <ItemData ItemOID="IT.EX.SPDEVID" Value="DEV0003"/>
      <ItemData ItemOID="IT.EX.EXSEQ" Value="29"/>
      <ItemData ItemOID="IT.EX.EXTRT" Value="ZANOMALINE"/>
      <ItemData ItemOID="IT.EX.EXDOSE" Value="81"/>
      <ItemData ItemOID="IT.EX.EXDOSU" Value="mg"/>
      <ItemData ItemOID="IT.EX.EXDOSFRM" Value="INJECTION"/>
      <ItemData ItemOID="IT.EX.EXDOSFRQ" Value="QD"/>
      <ItemData ItemOID="IT.EX.EXROUTE" Value="SUBCUTANEOUS"/>
      <ItemData ItemOID="IT.EX.EXLOT" Value="SDS580-359"/>
      <ItemData ItemOID="IT.EX.EPOCH" Value="TREATMENT"/>
      <ItemData ItemOID="IT.EX.EXSTDTC" Value="2013-09-26"/>
      <ItemData ItemOID="IT.EX.EXENDTC" Value="2013-09-26"/>
      <ItemData ItemOID="IT.EX.EXSTDY" Value="29"/>
      <ItemData ItemOID="IT.EX.EXENDY" Value="29"/>
    </ItemGroupData>
    <ItemGroupData ItemGroupOID="IG.EX" data:ItemGroupDataSeq="144">
      <ItemData ItemOID="IT.EX.STUDYID" Value="CDISCPILOT01"/>
      <ItemData ItemOID="IT.EX.DOMAIN" Value="EX"/>
      <ItemData ItemOID="IT.EX.USUBJID" Value="CDISC003"/>
      <ItemData ItemOID="IT.EX.SPDEVID" Value="DEV0003"/>
      <ItemData ItemOID="IT.EX.EXSEQ" Value="30"/>
      <ItemData ItemOID="IT.EX.EXTRT" Value="ZANOMALINE"/>
      <ItemData ItemOID="IT.EX.EXDOSE" Value="81"/>
      <ItemData ItemOID="IT.EX.EXDOSU" Value="mg"/>
      <ItemData ItemOID="IT.EX.EXDOSFRM" Value="INJECTION"/>
      <ItemData ItemOID="IT.EX.EXDOSFRQ" Value="QD"/>
      <ItemData ItemOID="IT.EX.EXROUTE" Value="SUBCUTANEOUS"/>
      <ItemData ItemOID="IT.EX.EXLOT" Value="SDS580-359"/>
      <ItemData ItemOID="IT.EX.EPOCH" Value="TREATMENT"/>
      <ItemData ItemOID="IT.EX.EXSTDTC" Value="2013-09-27"/>
      <ItemData ItemOID="IT.EX.EXENDTC" Value="2013-09-27"/>
      <ItemData ItemOID="IT.EX.EXSTDY" Value="30"/>
      <ItemData ItemOID="IT.EX.EXENDY" Value="30"/>
    </ItemGroupData>
    <ItemGroupData ItemGroupOID="IG.EX" data:ItemGroupDataSeq="145">
      <ItemData ItemOID="IT.EX.STUDYID" Value="CDISCPILOT01"/>
      <ItemData ItemOID="IT.EX.DOMAIN" Value="EX"/>
      <ItemData ItemOID="IT.EX.USUBJID" Value="CDISC003"/>
      <ItemData ItemOID="IT.EX.SPDEVID" Value="DEV0003"/>
      <ItemData ItemOID="IT.EX.EXSEQ" Value="31"/>
      <ItemData ItemOID="IT.EX.EXTRT" Value="ZANOMALINE"/>
      <ItemData ItemOID="IT.EX.EXDOSE" Value="81"/>
      <ItemData ItemOID="IT.EX.EXDOSU" Value="mg"/>
      <ItemData ItemOID="IT.EX.EXDOSFRM" Value="INJECTION"/>
      <ItemData ItemOID="IT.EX.EXDOSFRQ" Value="QD"/>
      <ItemData ItemOID="IT.EX.EXROUTE" Value="SUBCUTANEOUS"/>
      <ItemData ItemOID="IT.EX.EXLOT" Value="SDS580-359"/>
      <ItemData ItemOID="IT.EX.EPOCH" Value="TREATMENT"/>
      <ItemData ItemOID="IT.EX.EXSTDTC" Value="2013-09-28"/>
      <ItemData ItemOID="IT.EX.EXENDTC" Value="2013-09-28"/>
      <ItemData ItemOID="IT.EX.EXSTDY" Value="31"/>
      <ItemData ItemOID="IT.EX.EXENDY" Value="31"/>
    </ItemGroupData>
    <ItemGroupData ItemGroupOID="IG.EX" data:ItemGroupDataSeq="146">
      <ItemData ItemOID="IT.EX.STUDYID" Value="CDISCPILOT01"/>
      <ItemData ItemOID="IT.EX.DOMAIN" Value="EX"/>
      <ItemData ItemOID="IT.EX.USUBJID" Value="CDISC003"/>
      <ItemData ItemOID="IT.EX.SPDEVID" Value="DEV0003"/>
      <ItemData ItemOID="IT.EX.EXSEQ" Value="32"/>
      <ItemData ItemOID="IT.EX.EXTRT" Value="ZANOMALINE"/>
      <ItemData ItemOID="IT.EX.EXDOSE" Value="81"/>
      <ItemData ItemOID="IT.EX.EXDOSU" Value="mg"/>
      <ItemData ItemOID="IT.EX.EXDOSFRM" Value="INJECTION"/>
      <ItemData ItemOID="IT.EX.EXDOSFRQ" Value="QD"/>
      <ItemData ItemOID="IT.EX.EXROUTE" Value="SUBCUTANEOUS"/>
      <ItemData ItemOID="IT.EX.EXLOT" Value="SDS580-359"/>
      <ItemData ItemOID="IT.EX.EPOCH" Value="TREATMENT"/>
      <ItemData ItemOID="IT.EX.EXSTDTC" Value="2013-09-29"/>
      <ItemData ItemOID="IT.EX.EXENDTC" Value="2013-09-29"/>
      <ItemData ItemOID="IT.EX.EXSTDY" Value="32"/>
      <ItemData ItemOID="IT.EX.EXENDY" Value="32"/>
    </ItemGroupData>
    <ItemGroupData ItemGroupOID="IG.EX" data:ItemGroupDataSeq="147">
      <ItemData ItemOID="IT.EX.STUDYID" Value="CDISCPILOT01"/>
      <ItemData ItemOID="IT.EX.DOMAIN" Value="EX"/>
      <ItemData ItemOID="IT.EX.USUBJID" Value="CDISC003"/>
      <ItemData ItemOID="IT.EX.SPDEVID" Value="DEV0003"/>
      <ItemData ItemOID="IT.EX.EXSEQ" Value="33"/>
      <ItemData ItemOID="IT.EX.EXTRT" Value="ZANOMALINE"/>
      <ItemData ItemOID="IT.EX.EXDOSE" Value="81"/>
      <ItemData ItemOID="IT.EX.EXDOSU" Value="mg"/>
      <ItemData ItemOID="IT.EX.EXDOSFRM" Value="INJECTION"/>
      <ItemData ItemOID="IT.EX.EXDOSFRQ" Value="QD"/>
      <ItemData ItemOID="IT.EX.EXROUTE" Value="SUBCUTANEOUS"/>
      <ItemData ItemOID="IT.EX.EXLOT" Value="SDS580-359"/>
      <ItemData ItemOID="IT.EX.EPOCH" Value="TREATMENT"/>
      <ItemData ItemOID="IT.EX.EXSTDTC" Value="2013-09-30"/>
      <ItemData ItemOID="IT.EX.EXENDTC" Value="2013-09-30"/>
      <ItemData ItemOID="IT.EX.EXSTDY" Value="33"/>
      <ItemData ItemOID="IT.EX.EXENDY" Value="33"/>
    </ItemGroupData>
    <ItemGroupData ItemGroupOID="IG.EX" data:ItemGroupDataSeq="148">
      <ItemData ItemOID="IT.EX.STUDYID" Value="CDISCPILOT01"/>
      <ItemData ItemOID="IT.EX.DOMAIN" Value="EX"/>
      <ItemData ItemOID="IT.EX.USUBJID" Value="CDISC003"/>
      <ItemData ItemOID="IT.EX.SPDEVID" Value="DEV0003"/>
      <ItemData ItemOID="IT.EX.EXSEQ" Value="34"/>
      <ItemData ItemOID="IT.EX.EXTRT" Value="ZANOMALINE"/>
      <ItemData ItemOID="IT.EX.EXDOSE" Value="81"/>
      <ItemData ItemOID="IT.EX.EXDOSU" Value="mg"/>
      <ItemData ItemOID="IT.EX.EXDOSFRM" Value="INJECTION"/>
      <ItemData ItemOID="IT.EX.EXDOSFRQ" Value="QD"/>
      <ItemData ItemOID="IT.EX.EXROUTE" Value="SUBCUTANEOUS"/>
      <ItemData ItemOID="IT.EX.EXLOT" Value="SDS580-359"/>
      <ItemData ItemOID="IT.EX.EPOCH" Value="TREATMENT"/>
      <ItemData ItemOID="IT.EX.EXSTDTC" Value="2013-10-01"/>
      <ItemData ItemOID="IT.EX.EXENDTC" Value="2013-10-01"/>
      <ItemData ItemOID="IT.EX.EXSTDY" Value="34"/>
      <ItemData ItemOID="IT.EX.EXENDY" Value="34"/>
    </ItemGroupData>
    <ItemGroupData ItemGroupOID="IG.EX" data:ItemGroupDataSeq="149">
      <ItemData ItemOID="IT.EX.STUDYID" Value="CDISCPILOT01"/>
      <ItemData ItemOID="IT.EX.DOMAIN" Value="EX"/>
      <ItemData ItemOID="IT.EX.USUBJID" Value="CDISC003"/>
      <ItemData ItemOID="IT.EX.SPDEVID" Value="DEV0003"/>
      <ItemData ItemOID="IT.EX.EXSEQ" Value="35"/>
      <ItemData ItemOID="IT.EX.EXTRT" Value="ZANOMALINE"/>
      <ItemData ItemOID="IT.EX.EXDOSE" Value="81"/>
      <ItemData ItemOID="IT.EX.EXDOSU" Value="mg"/>
      <ItemData ItemOID="IT.EX.EXDOSFRM" Value="INJECTION"/>
      <ItemData ItemOID="IT.EX.EXDOSFRQ" Value="QD"/>
      <ItemData ItemOID="IT.EX.EXROUTE" Value="SUBCUTANEOUS"/>
      <ItemData ItemOID="IT.EX.EXLOT" Value="SDS580-359"/>
      <ItemData ItemOID="IT.EX.EPOCH" Value="TREATMENT"/>
      <ItemData ItemOID="IT.EX.EXSTDTC" Value="2013-10-02"/>
      <ItemData ItemOID="IT.EX.EXENDTC" Value="2013-10-02"/>
      <ItemData ItemOID="IT.EX.EXSTDY" Value="35"/>
      <ItemData ItemOID="IT.EX.EXENDY" Value="35"/>
    </ItemGroupData>
    <ItemGroupData ItemGroupOID="IG.EX" data:ItemGroupDataSeq="150">
      <ItemData ItemOID="IT.EX.STUDYID" Value="CDISCPILOT01"/>
      <ItemData ItemOID="IT.EX.DOMAIN" Value="EX"/>
      <ItemData ItemOID="IT.EX.USUBJID" Value="CDISC003"/>
      <ItemData ItemOID="IT.EX.SPDEVID" Value="DEV0003"/>
      <ItemData ItemOID="IT.EX.EXSEQ" Value="36"/>
      <ItemData ItemOID="IT.EX.EXTRT" Value="ZANOMALINE"/>
      <ItemData ItemOID="IT.EX.EXDOSE" Value="81"/>
      <ItemData ItemOID="IT.EX.EXDOSU" Value="mg"/>
      <ItemData ItemOID="IT.EX.EXDOSFRM" Value="INJECTION"/>
      <ItemData ItemOID="IT.EX.EXDOSFRQ" Value="QD"/>
      <ItemData ItemOID="IT.EX.EXROUTE" Value="SUBCUTANEOUS"/>
      <ItemData ItemOID="IT.EX.EXLOT" Value="SDS580-359"/>
      <ItemData ItemOID="IT.EX.EPOCH" Value="TREATMENT"/>
      <ItemData ItemOID="IT.EX.EXSTDTC" Value="2013-10-03"/>
      <ItemData ItemOID="IT.EX.EXENDTC" Value="2013-10-03"/>
      <ItemData ItemOID="IT.EX.EXSTDY" Value="36"/>
      <ItemData ItemOID="IT.EX.EXENDY" Value="36"/>
    </ItemGroupData>
    <ItemGroupData ItemGroupOID="IG.EX" data:ItemGroupDataSeq="151">
      <ItemData ItemOID="IT.EX.STUDYID" Value="CDISCPILOT01"/>
      <ItemData ItemOID="IT.EX.DOMAIN" Value="EX"/>
      <ItemData ItemOID="IT.EX.USUBJID" Value="CDISC003"/>
      <ItemData ItemOID="IT.EX.SPDEVID" Value="DEV0003"/>
      <ItemData ItemOID="IT.EX.EXSEQ" Value="37"/>
      <ItemData ItemOID="IT.EX.EXTRT" Value="ZANOMALINE"/>
      <ItemData ItemOID="IT.EX.EXDOSE" Value="81"/>
      <ItemData ItemOID="IT.EX.EXDOSU" Value="mg"/>
      <ItemData ItemOID="IT.EX.EXDOSFRM" Value="INJECTION"/>
      <ItemData ItemOID="IT.EX.EXDOSFRQ" Value="QD"/>
      <ItemData ItemOID="IT.EX.EXROUTE" Value="SUBCUTANEOUS"/>
      <ItemData ItemOID="IT.EX.EXLOT" Value="SDS580-359"/>
      <ItemData ItemOID="IT.EX.EPOCH" Value="TREATMENT"/>
      <ItemData ItemOID="IT.EX.EXSTDTC" Value="2013-10-04"/>
      <ItemData ItemOID="IT.EX.EXENDTC" Value="2013-10-04"/>
      <ItemData ItemOID="IT.EX.EXSTDY" Value="37"/>
      <ItemData ItemOID="IT.EX.EXENDY" Value="37"/>
    </ItemGroupData>
    <ItemGroupData ItemGroupOID="IG.EX" data:ItemGroupDataSeq="152">
      <ItemData ItemOID="IT.EX.STUDYID" Value="CDISCPILOT01"/>
      <ItemData ItemOID="IT.EX.DOMAIN" Value="EX"/>
      <ItemData ItemOID="IT.EX.USUBJID" Value="CDISC003"/>
      <ItemData ItemOID="IT.EX.SPDEVID" Value="DEV0003"/>
      <ItemData ItemOID="IT.EX.EXSEQ" Value="38"/>
      <ItemData ItemOID="IT.EX.EXTRT" Value="ZANOMALINE"/>
      <ItemData ItemOID="IT.EX.EXDOSE" Value="81"/>
      <ItemData ItemOID="IT.EX.EXDOSU" Value="mg"/>
      <ItemData ItemOID="IT.EX.EXDOSFRM" Value="INJECTION"/>
      <ItemData ItemOID="IT.EX.EXDOSFRQ" Value="QD"/>
      <ItemData ItemOID="IT.EX.EXROUTE" Value="SUBCUTANEOUS"/>
      <ItemData ItemOID="IT.EX.EXLOT" Value="SDS580-359"/>
      <ItemData ItemOID="IT.EX.EPOCH" Value="TREATMENT"/>
      <ItemData ItemOID="IT.EX.EXSTDTC" Value="2013-10-05"/>
      <ItemData ItemOID="IT.EX.EXENDTC" Value="2013-10-05"/>
      <ItemData ItemOID="IT.EX.EXSTDY" Value="38"/>
      <ItemData ItemOID="IT.EX.EXENDY" Value="38"/>
    </ItemGroupData>
    <ItemGroupData ItemGroupOID="IG.EX" data:ItemGroupDataSeq="153">
      <ItemData ItemOID="IT.EX.STUDYID" Value="CDISCPILOT01"/>
      <ItemData ItemOID="IT.EX.DOMAIN" Value="EX"/>
      <ItemData ItemOID="IT.EX.USUBJID" Value="CDISC003"/>
      <ItemData ItemOID="IT.EX.SPDEVID" Value="DEV0003"/>
      <ItemData ItemOID="IT.EX.EXSEQ" Value="39"/>
      <ItemData ItemOID="IT.EX.EXTRT" Value="ZANOMALINE"/>
      <ItemData ItemOID="IT.EX.EXDOSE" Value="81"/>
      <ItemData ItemOID="IT.EX.EXDOSU" Value="mg"/>
      <ItemData ItemOID="IT.EX.EXDOSFRM" Value="INJECTION"/>
      <ItemData ItemOID="IT.EX.EXDOSFRQ" Value="QD"/>
      <ItemData ItemOID="IT.EX.EXROUTE" Value="SUBCUTANEOUS"/>
      <ItemData ItemOID="IT.EX.EXLOT" Value="SDS580-359"/>
      <ItemData ItemOID="IT.EX.EPOCH" Value="TREATMENT"/>
      <ItemData ItemOID="IT.EX.EXSTDTC" Value="2013-10-06"/>
      <ItemData ItemOID="IT.EX.EXENDTC" Value="2013-10-06"/>
      <ItemData ItemOID="IT.EX.EXSTDY" Value="39"/>
      <ItemData ItemOID="IT.EX.EXENDY" Value="39"/>
    </ItemGroupData>
    <ItemGroupData ItemGroupOID="IG.EX" data:ItemGroupDataSeq="154">
      <ItemData ItemOID="IT.EX.STUDYID" Value="CDISCPILOT01"/>
      <ItemData ItemOID="IT.EX.DOMAIN" Value="EX"/>
      <ItemData ItemOID="IT.EX.USUBJID" Value="CDISC003"/>
      <ItemData ItemOID="IT.EX.SPDEVID" Value="DEV0003"/>
      <ItemData ItemOID="IT.EX.EXSEQ" Value="40"/>
      <ItemData ItemOID="IT.EX.EXTRT" Value="ZANOMALINE"/>
      <ItemData ItemOID="IT.EX.EXDOSE" Value="81"/>
      <ItemData ItemOID="IT.EX.EXDOSU" Value="mg"/>
      <ItemData ItemOID="IT.EX.EXDOSFRM" Value="INJECTION"/>
      <ItemData ItemOID="IT.EX.EXDOSFRQ" Value="QD"/>
      <ItemData ItemOID="IT.EX.EXROUTE" Value="SUBCUTANEOUS"/>
      <ItemData ItemOID="IT.EX.EXLOT" Value="SDS580-359"/>
      <ItemData ItemOID="IT.EX.EPOCH" Value="TREATMENT"/>
      <ItemData ItemOID="IT.EX.EXSTDTC" Value="2013-10-07"/>
      <ItemData ItemOID="IT.EX.EXENDTC" Value="2013-10-07"/>
      <ItemData ItemOID="IT.EX.EXSTDY" Value="40"/>
      <ItemData ItemOID="IT.EX.EXENDY" Value="40"/>
    </ItemGroupData>
    <ItemGroupData ItemGroupOID="IG.EX" data:ItemGroupDataSeq="155">
      <ItemData ItemOID="IT.EX.STUDYID" Value="CDISCPILOT01"/>
      <ItemData ItemOID="IT.EX.DOMAIN" Value="EX"/>
      <ItemData ItemOID="IT.EX.USUBJID" Value="CDISC003"/>
      <ItemData ItemOID="IT.EX.SPDEVID" Value="DEV0003"/>
      <ItemData ItemOID="IT.EX.EXSEQ" Value="41"/>
      <ItemData ItemOID="IT.EX.EXTRT" Value="ZANOMALINE"/>
      <ItemData ItemOID="IT.EX.EXDOSE" Value="81"/>
      <ItemData ItemOID="IT.EX.EXDOSU" Value="mg"/>
      <ItemData ItemOID="IT.EX.EXDOSFRM" Value="INJECTION"/>
      <ItemData ItemOID="IT.EX.EXDOSFRQ" Value="QD"/>
      <ItemData ItemOID="IT.EX.EXROUTE" Value="SUBCUTANEOUS"/>
      <ItemData ItemOID="IT.EX.EXLOT" Value="SDS580-359"/>
      <ItemData ItemOID="IT.EX.EPOCH" Value="TREATMENT"/>
      <ItemData ItemOID="IT.EX.EXSTDTC" Value="2013-10-08"/>
      <ItemData ItemOID="IT.EX.EXENDTC" Value="2013-10-08"/>
      <ItemData ItemOID="IT.EX.EXSTDY" Value="41"/>
      <ItemData ItemOID="IT.EX.EXENDY" Value="41"/>
    </ItemGroupData>
    <ItemGroupData ItemGroupOID="IG.EX" data:ItemGroupDataSeq="156">
      <ItemData ItemOID="IT.EX.STUDYID" Value="CDISCPILOT01"/>
      <ItemData ItemOID="IT.EX.DOMAIN" Value="EX"/>
      <ItemData ItemOID="IT.EX.USUBJID" Value="CDISC003"/>
      <ItemData ItemOID="IT.EX.SPDEVID" Value="DEV0003"/>
      <ItemData ItemOID="IT.EX.EXSEQ" Value="42"/>
      <ItemData ItemOID="IT.EX.EXTRT" Value="ZANOMALINE"/>
      <ItemData ItemOID="IT.EX.EXDOSE" Value="81"/>
      <ItemData ItemOID="IT.EX.EXDOSU" Value="mg"/>
      <ItemData ItemOID="IT.EX.EXDOSFRM" Value="INJECTION"/>
      <ItemData ItemOID="IT.EX.EXDOSFRQ" Value="QD"/>
      <ItemData ItemOID="IT.EX.EXROUTE" Value="SUBCUTANEOUS"/>
      <ItemData ItemOID="IT.EX.EXLOT" Value="SDS580-359"/>
      <ItemData ItemOID="IT.EX.EPOCH" Value="TREATMENT"/>
      <ItemData ItemOID="IT.EX.EXSTDTC" Value="2013-10-09"/>
      <ItemData ItemOID="IT.EX.EXENDTC" Value="2013-10-09"/>
      <ItemData ItemOID="IT.EX.EXSTDY" Value="42"/>
      <ItemData ItemOID="IT.EX.EXENDY" Value="42"/>
    </ItemGroupData>
    <ItemGroupData ItemGroupOID="IG.EX" data:ItemGroupDataSeq="157">
      <ItemData ItemOID="IT.EX.STUDYID" Value="CDISCPILOT01"/>
      <ItemData ItemOID="IT.EX.DOMAIN" Value="EX"/>
      <ItemData ItemOID="IT.EX.USUBJID" Value="CDISC003"/>
      <ItemData ItemOID="IT.EX.SPDEVID" Value="DEV0003"/>
      <ItemData ItemOID="IT.EX.EXSEQ" Value="43"/>
      <ItemData ItemOID="IT.EX.EXTRT" Value="ZANOMALINE"/>
      <ItemData ItemOID="IT.EX.EXDOSE" Value="81"/>
      <ItemData ItemOID="IT.EX.EXDOSU" Value="mg"/>
      <ItemData ItemOID="IT.EX.EXDOSFRM" Value="INJECTION"/>
      <ItemData ItemOID="IT.EX.EXDOSFRQ" Value="QD"/>
      <ItemData ItemOID="IT.EX.EXROUTE" Value="SUBCUTANEOUS"/>
      <ItemData ItemOID="IT.EX.EXLOT" Value="SDS580-359"/>
      <ItemData ItemOID="IT.EX.EPOCH" Value="TREATMENT"/>
      <ItemData ItemOID="IT.EX.EXSTDTC" Value="2013-10-10"/>
      <ItemData ItemOID="IT.EX.EXENDTC" Value="2013-10-10"/>
      <ItemData ItemOID="IT.EX.EXSTDY" Value="43"/>
      <ItemData ItemOID="IT.EX.EXENDY" Value="43"/>
    </ItemGroupData>
    <ItemGroupData ItemGroupOID="IG.EX" data:ItemGroupDataSeq="158">
      <ItemData ItemOID="IT.EX.STUDYID" Value="CDISCPILOT01"/>
      <ItemData ItemOID="IT.EX.DOMAIN" Value="EX"/>
      <ItemData ItemOID="IT.EX.USUBJID" Value="CDISC003"/>
      <ItemData ItemOID="IT.EX.SPDEVID" Value="DEV0003"/>
      <ItemData ItemOID="IT.EX.EXSEQ" Value="44"/>
      <ItemData ItemOID="IT.EX.EXTRT" Value="ZANOMALINE"/>
      <ItemData ItemOID="IT.EX.EXDOSE" Value="81"/>
      <ItemData ItemOID="IT.EX.EXDOSU" Value="mg"/>
      <ItemData ItemOID="IT.EX.EXDOSFRM" Value="INJECTION"/>
      <ItemData ItemOID="IT.EX.EXDOSFRQ" Value="QD"/>
      <ItemData ItemOID="IT.EX.EXROUTE" Value="SUBCUTANEOUS"/>
      <ItemData ItemOID="IT.EX.EXLOT" Value="SDS580-359"/>
      <ItemData ItemOID="IT.EX.EPOCH" Value="TREATMENT"/>
      <ItemData ItemOID="IT.EX.EXSTDTC" Value="2013-10-11"/>
      <ItemData ItemOID="IT.EX.EXENDTC" Value="2013-10-11"/>
      <ItemData ItemOID="IT.EX.EXSTDY" Value="44"/>
      <ItemData ItemOID="IT.EX.EXENDY" Value="44"/>
    </ItemGroupData>
    <ItemGroupData ItemGroupOID="IG.EX" data:ItemGroupDataSeq="159">
      <ItemData ItemOID="IT.EX.STUDYID" Value="CDISCPILOT01"/>
      <ItemData ItemOID="IT.EX.DOMAIN" Value="EX"/>
      <ItemData ItemOID="IT.EX.USUBJID" Value="CDISC003"/>
      <ItemData ItemOID="IT.EX.SPDEVID" Value="DEV0003"/>
      <ItemData ItemOID="IT.EX.EXSEQ" Value="45"/>
      <ItemData ItemOID="IT.EX.EXTRT" Value="ZANOMALINE"/>
      <ItemData ItemOID="IT.EX.EXDOSE" Value="81"/>
      <ItemData ItemOID="IT.EX.EXDOSU" Value="mg"/>
      <ItemData ItemOID="IT.EX.EXDOSFRM" Value="INJECTION"/>
      <ItemData ItemOID="IT.EX.EXDOSFRQ" Value="QD"/>
      <ItemData ItemOID="IT.EX.EXROUTE" Value="SUBCUTANEOUS"/>
      <ItemData ItemOID="IT.EX.EXLOT" Value="SDS580-359"/>
      <ItemData ItemOID="IT.EX.EPOCH" Value="TREATMENT"/>
      <ItemData ItemOID="IT.EX.EXSTDTC" Value="2013-10-12"/>
      <ItemData ItemOID="IT.EX.EXENDTC" Value="2013-10-12"/>
      <ItemData ItemOID="IT.EX.EXSTDY" Value="45"/>
      <ItemData ItemOID="IT.EX.EXENDY" Value="45"/>
    </ItemGroupData>
    <ItemGroupData ItemGroupOID="IG.EX" data:ItemGroupDataSeq="160">
      <ItemData ItemOID="IT.EX.STUDYID" Value="CDISCPILOT01"/>
      <ItemData ItemOID="IT.EX.DOMAIN" Value="EX"/>
      <ItemData ItemOID="IT.EX.USUBJID" Value="CDISC003"/>
      <ItemData ItemOID="IT.EX.SPDEVID" Value="DEV0003"/>
      <ItemData ItemOID="IT.EX.EXSEQ" Value="46"/>
      <ItemData ItemOID="IT.EX.EXTRT" Value="ZANOMALINE"/>
      <ItemData ItemOID="IT.EX.EXDOSE" Value="81"/>
      <ItemData ItemOID="IT.EX.EXDOSU" Value="mg"/>
      <ItemData ItemOID="IT.EX.EXDOSFRM" Value="INJECTION"/>
      <ItemData ItemOID="IT.EX.EXDOSFRQ" Value="QD"/>
      <ItemData ItemOID="IT.EX.EXROUTE" Value="SUBCUTANEOUS"/>
      <ItemData ItemOID="IT.EX.EXLOT" Value="SDS580-359"/>
      <ItemData ItemOID="IT.EX.EPOCH" Value="TREATMENT"/>
      <ItemData ItemOID="IT.EX.EXSTDTC" Value="2013-10-13"/>
      <ItemData ItemOID="IT.EX.EXENDTC" Value="2013-10-13"/>
      <ItemData ItemOID="IT.EX.EXSTDY" Value="46"/>
      <ItemData ItemOID="IT.EX.EXENDY" Value="46"/>
    </ItemGroupData>
    <ItemGroupData ItemGroupOID="IG.EX" data:ItemGroupDataSeq="161">
      <ItemData ItemOID="IT.EX.STUDYID" Value="CDISCPILOT01"/>
      <ItemData ItemOID="IT.EX.DOMAIN" Value="EX"/>
      <ItemData ItemOID="IT.EX.USUBJID" Value="CDISC003"/>
      <ItemData ItemOID="IT.EX.SPDEVID" Value="DEV0003"/>
      <ItemData ItemOID="IT.EX.EXSEQ" Value="47"/>
      <ItemData ItemOID="IT.EX.EXTRT" Value="ZANOMALINE"/>
      <ItemData ItemOID="IT.EX.EXDOSE" Value="81"/>
      <ItemData ItemOID="IT.EX.EXDOSU" Value="mg"/>
      <ItemData ItemOID="IT.EX.EXDOSFRM" Value="INJECTION"/>
      <ItemData ItemOID="IT.EX.EXDOSFRQ" Value="QD"/>
      <ItemData ItemOID="IT.EX.EXROUTE" Value="SUBCUTANEOUS"/>
      <ItemData ItemOID="IT.EX.EXLOT" Value="SDS580-359"/>
      <ItemData ItemOID="IT.EX.EPOCH" Value="TREATMENT"/>
      <ItemData ItemOID="IT.EX.EXSTDTC" Value="2013-10-14"/>
      <ItemData ItemOID="IT.EX.EXENDTC" Value="2013-10-14"/>
      <ItemData ItemOID="IT.EX.EXSTDY" Value="47"/>
      <ItemData ItemOID="IT.EX.EXENDY" Value="47"/>
    </ItemGroupData>
    <ItemGroupData ItemGroupOID="IG.EX" data:ItemGroupDataSeq="162">
      <ItemData ItemOID="IT.EX.STUDYID" Value="CDISCPILOT01"/>
      <ItemData ItemOID="IT.EX.DOMAIN" Value="EX"/>
      <ItemData ItemOID="IT.EX.USUBJID" Value="CDISC003"/>
      <ItemData ItemOID="IT.EX.SPDEVID" Value="DEV0003"/>
      <ItemData ItemOID="IT.EX.EXSEQ" Value="48"/>
      <ItemData ItemOID="IT.EX.EXTRT" Value="ZANOMALINE"/>
      <ItemData ItemOID="IT.EX.EXDOSE" Value="81"/>
      <ItemData ItemOID="IT.EX.EXDOSU" Value="mg"/>
      <ItemData ItemOID="IT.EX.EXDOSFRM" Value="INJECTION"/>
      <ItemData ItemOID="IT.EX.EXDOSFRQ" Value="QD"/>
      <ItemData ItemOID="IT.EX.EXROUTE" Value="SUBCUTANEOUS"/>
      <ItemData ItemOID="IT.EX.EXLOT" Value="SDS580-359"/>
      <ItemData ItemOID="IT.EX.EPOCH" Value="TREATMENT"/>
      <ItemData ItemOID="IT.EX.EXSTDTC" Value="2013-10-15"/>
      <ItemData ItemOID="IT.EX.EXENDTC" Value="2013-10-15"/>
      <ItemData ItemOID="IT.EX.EXSTDY" Value="48"/>
      <ItemData ItemOID="IT.EX.EXENDY" Value="48"/>
    </ItemGroupData>
    <ItemGroupData ItemGroupOID="IG.EX" data:ItemGroupDataSeq="163">
      <ItemData ItemOID="IT.EX.STUDYID" Value="CDISCPILOT01"/>
      <ItemData ItemOID="IT.EX.DOMAIN" Value="EX"/>
      <ItemData ItemOID="IT.EX.USUBJID" Value="CDISC003"/>
      <ItemData ItemOID="IT.EX.SPDEVID" Value="DEV0003"/>
      <ItemData ItemOID="IT.EX.EXSEQ" Value="49"/>
      <ItemData ItemOID="IT.EX.EXTRT" Value="ZANOMALINE"/>
      <ItemData ItemOID="IT.EX.EXDOSE" Value="81"/>
      <ItemData ItemOID="IT.EX.EXDOSU" Value="mg"/>
      <ItemData ItemOID="IT.EX.EXDOSFRM" Value="INJECTION"/>
      <ItemData ItemOID="IT.EX.EXDOSFRQ" Value="QD"/>
      <ItemData ItemOID="IT.EX.EXROUTE" Value="SUBCUTANEOUS"/>
      <ItemData ItemOID="IT.EX.EXLOT" Value="SDS580-359"/>
      <ItemData ItemOID="IT.EX.EPOCH" Value="TREATMENT"/>
      <ItemData ItemOID="IT.EX.EXSTDTC" Value="2013-10-16"/>
      <ItemData ItemOID="IT.EX.EXENDTC" Value="2013-10-16"/>
      <ItemData ItemOID="IT.EX.EXSTDY" Value="49"/>
      <ItemData ItemOID="IT.EX.EXENDY" Value="49"/>
    </ItemGroupData>
    <ItemGroupData ItemGroupOID="IG.EX" data:ItemGroupDataSeq="164">
      <ItemData ItemOID="IT.EX.STUDYID" Value="CDISCPILOT01"/>
      <ItemData ItemOID="IT.EX.DOMAIN" Value="EX"/>
      <ItemData ItemOID="IT.EX.USUBJID" Value="CDISC003"/>
      <ItemData ItemOID="IT.EX.SPDEVID" Value="DEV0003"/>
      <ItemData ItemOID="IT.EX.EXSEQ" Value="50"/>
      <ItemData ItemOID="IT.EX.EXTRT" Value="ZANOMALINE"/>
      <ItemData ItemOID="IT.EX.EXDOSE" Value="81"/>
      <ItemData ItemOID="IT.EX.EXDOSU" Value="mg"/>
      <ItemData ItemOID="IT.EX.EXDOSFRM" Value="INJECTION"/>
      <ItemData ItemOID="IT.EX.EXDOSFRQ" Value="QD"/>
      <ItemData ItemOID="IT.EX.EXROUTE" Value="SUBCUTANEOUS"/>
      <ItemData ItemOID="IT.EX.EXLOT" Value="SDS580-359"/>
      <ItemData ItemOID="IT.EX.EPOCH" Value="TREATMENT"/>
      <ItemData ItemOID="IT.EX.EXSTDTC" Value="2013-10-17"/>
      <ItemData ItemOID="IT.EX.EXENDTC" Value="2013-10-17"/>
      <ItemData ItemOID="IT.EX.EXSTDY" Value="50"/>
      <ItemData ItemOID="IT.EX.EXENDY" Value="50"/>
    </ItemGroupData>
    <ItemGroupData ItemGroupOID="IG.EX" data:ItemGroupDataSeq="165">
      <ItemData ItemOID="IT.EX.STUDYID" Value="CDISCPILOT01"/>
      <ItemData ItemOID="IT.EX.DOMAIN" Value="EX"/>
      <ItemData ItemOID="IT.EX.USUBJID" Value="CDISC003"/>
      <ItemData ItemOID="IT.EX.SPDEVID" Value="DEV0003"/>
      <ItemData ItemOID="IT.EX.EXSEQ" Value="51"/>
      <ItemData ItemOID="IT.EX.EXTRT" Value="ZANOMALINE"/>
      <ItemData ItemOID="IT.EX.EXDOSE" Value="81"/>
      <ItemData ItemOID="IT.EX.EXDOSU" Value="mg"/>
      <ItemData ItemOID="IT.EX.EXDOSFRM" Value="INJECTION"/>
      <ItemData ItemOID="IT.EX.EXDOSFRQ" Value="QD"/>
      <ItemData ItemOID="IT.EX.EXROUTE" Value="SUBCUTANEOUS"/>
      <ItemData ItemOID="IT.EX.EXLOT" Value="SDS580-359"/>
      <ItemData ItemOID="IT.EX.EPOCH" Value="TREATMENT"/>
      <ItemData ItemOID="IT.EX.EXSTDTC" Value="2013-10-18"/>
      <ItemData ItemOID="IT.EX.EXENDTC" Value="2013-10-18"/>
      <ItemData ItemOID="IT.EX.EXSTDY" Value="51"/>
      <ItemData ItemOID="IT.EX.EXENDY" Value="51"/>
    </ItemGroupData>
    <ItemGroupData ItemGroupOID="IG.EX" data:ItemGroupDataSeq="166">
      <ItemData ItemOID="IT.EX.STUDYID" Value="CDISCPILOT01"/>
      <ItemData ItemOID="IT.EX.DOMAIN" Value="EX"/>
      <ItemData ItemOID="IT.EX.USUBJID" Value="CDISC003"/>
      <ItemData ItemOID="IT.EX.SPDEVID" Value="DEV0003"/>
      <ItemData ItemOID="IT.EX.EXSEQ" Value="52"/>
      <ItemData ItemOID="IT.EX.EXTRT" Value="ZANOMALINE"/>
      <ItemData ItemOID="IT.EX.EXDOSE" Value="81"/>
      <ItemData ItemOID="IT.EX.EXDOSU" Value="mg"/>
      <ItemData ItemOID="IT.EX.EXDOSFRM" Value="INJECTION"/>
      <ItemData ItemOID="IT.EX.EXDOSFRQ" Value="QD"/>
      <ItemData ItemOID="IT.EX.EXROUTE" Value="SUBCUTANEOUS"/>
      <ItemData ItemOID="IT.EX.EXLOT" Value="SDS580-359"/>
      <ItemData ItemOID="IT.EX.EPOCH" Value="TREATMENT"/>
      <ItemData ItemOID="IT.EX.EXSTDTC" Value="2013-10-19"/>
      <ItemData ItemOID="IT.EX.EXENDTC" Value="2013-10-19"/>
      <ItemData ItemOID="IT.EX.EXSTDY" Value="52"/>
      <ItemData ItemOID="IT.EX.EXENDY" Value="52"/>
    </ItemGroupData>
    <ItemGroupData ItemGroupOID="IG.EX" data:ItemGroupDataSeq="167">
      <ItemData ItemOID="IT.EX.STUDYID" Value="CDISCPILOT01"/>
      <ItemData ItemOID="IT.EX.DOMAIN" Value="EX"/>
      <ItemData ItemOID="IT.EX.USUBJID" Value="CDISC003"/>
      <ItemData ItemOID="IT.EX.SPDEVID" Value="DEV0003"/>
      <ItemData ItemOID="IT.EX.EXSEQ" Value="53"/>
      <ItemData ItemOID="IT.EX.EXTRT" Value="ZANOMALINE"/>
      <ItemData ItemOID="IT.EX.EXDOSE" Value="81"/>
      <ItemData ItemOID="IT.EX.EXDOSU" Value="mg"/>
      <ItemData ItemOID="IT.EX.EXDOSFRM" Value="INJECTION"/>
      <ItemData ItemOID="IT.EX.EXDOSFRQ" Value="QD"/>
      <ItemData ItemOID="IT.EX.EXROUTE" Value="SUBCUTANEOUS"/>
      <ItemData ItemOID="IT.EX.EXLOT" Value="SDS580-359"/>
      <ItemData ItemOID="IT.EX.EPOCH" Value="TREATMENT"/>
      <ItemData ItemOID="IT.EX.EXSTDTC" Value="2013-10-20"/>
      <ItemData ItemOID="IT.EX.EXENDTC" Value="2013-10-20"/>
      <ItemData ItemOID="IT.EX.EXSTDY" Value="53"/>
      <ItemData ItemOID="IT.EX.EXENDY" Value="53"/>
    </ItemGroupData>
    <ItemGroupData ItemGroupOID="IG.EX" data:ItemGroupDataSeq="168">
      <ItemData ItemOID="IT.EX.STUDYID" Value="CDISCPILOT01"/>
      <ItemData ItemOID="IT.EX.DOMAIN" Value="EX"/>
      <ItemData ItemOID="IT.EX.USUBJID" Value="CDISC003"/>
      <ItemData ItemOID="IT.EX.SPDEVID" Value="DEV0003"/>
      <ItemData ItemOID="IT.EX.EXSEQ" Value="54"/>
      <ItemData ItemOID="IT.EX.EXTRT" Value="ZANOMALINE"/>
      <ItemData ItemOID="IT.EX.EXDOSE" Value="81"/>
      <ItemData ItemOID="IT.EX.EXDOSU" Value="mg"/>
      <ItemData ItemOID="IT.EX.EXDOSFRM" Value="INJECTION"/>
      <ItemData ItemOID="IT.EX.EXDOSFRQ" Value="QD"/>
      <ItemData ItemOID="IT.EX.EXROUTE" Value="SUBCUTANEOUS"/>
      <ItemData ItemOID="IT.EX.EXLOT" Value="SDS580-359"/>
      <ItemData ItemOID="IT.EX.EPOCH" Value="TREATMENT"/>
      <ItemData ItemOID="IT.EX.EXSTDTC" Value="2013-10-21"/>
      <ItemData ItemOID="IT.EX.EXENDTC" Value="2013-10-21"/>
      <ItemData ItemOID="IT.EX.EXSTDY" Value="54"/>
      <ItemData ItemOID="IT.EX.EXENDY" Value="54"/>
    </ItemGroupData>
    <ItemGroupData ItemGroupOID="IG.EX" data:ItemGroupDataSeq="169">
      <ItemData ItemOID="IT.EX.STUDYID" Value="CDISCPILOT01"/>
      <ItemData ItemOID="IT.EX.DOMAIN" Value="EX"/>
      <ItemData ItemOID="IT.EX.USUBJID" Value="CDISC003"/>
      <ItemData ItemOID="IT.EX.SPDEVID" Value="DEV0003"/>
      <ItemData ItemOID="IT.EX.EXSEQ" Value="55"/>
      <ItemData ItemOID="IT.EX.EXTRT" Value="ZANOMALINE"/>
      <ItemData ItemOID="IT.EX.EXDOSE" Value="81"/>
      <ItemData ItemOID="IT.EX.EXDOSU" Value="mg"/>
      <ItemData ItemOID="IT.EX.EXDOSFRM" Value="INJECTION"/>
      <ItemData ItemOID="IT.EX.EXDOSFRQ" Value="QD"/>
      <ItemData ItemOID="IT.EX.EXROUTE" Value="SUBCUTANEOUS"/>
      <ItemData ItemOID="IT.EX.EXLOT" Value="SDS580-359"/>
      <ItemData ItemOID="IT.EX.EPOCH" Value="TREATMENT"/>
      <ItemData ItemOID="IT.EX.EXSTDTC" Value="2013-10-22"/>
      <ItemData ItemOID="IT.EX.EXENDTC" Value="2013-10-22"/>
      <ItemData ItemOID="IT.EX.EXSTDY" Value="55"/>
      <ItemData ItemOID="IT.EX.EXENDY" Value="55"/>
    </ItemGroupData>
    <ItemGroupData ItemGroupOID="IG.EX" data:ItemGroupDataSeq="170">
      <ItemData ItemOID="IT.EX.STUDYID" Value="CDISCPILOT01"/>
      <ItemData ItemOID="IT.EX.DOMAIN" Value="EX"/>
      <ItemData ItemOID="IT.EX.USUBJID" Value="CDISC003"/>
      <ItemData ItemOID="IT.EX.SPDEVID" Value="DEV0003"/>
      <ItemData ItemOID="IT.EX.EXSEQ" Value="56"/>
      <ItemData ItemOID="IT.EX.EXTRT" Value="ZANOMALINE"/>
      <ItemData ItemOID="IT.EX.EXDOSE" Value="81"/>
      <ItemData ItemOID="IT.EX.EXDOSU" Value="mg"/>
      <ItemData ItemOID="IT.EX.EXDOSFRM" Value="INJECTION"/>
      <ItemData ItemOID="IT.EX.EXDOSFRQ" Value="QD"/>
      <ItemData ItemOID="IT.EX.EXROUTE" Value="SUBCUTANEOUS"/>
      <ItemData ItemOID="IT.EX.EXLOT" Value="SDS580-359"/>
      <ItemData ItemOID="IT.EX.EPOCH" Value="TREATMENT"/>
      <ItemData ItemOID="IT.EX.EXSTDTC" Value="2013-10-23"/>
      <ItemData ItemOID="IT.EX.EXENDTC" Value="2013-10-23"/>
      <ItemData ItemOID="IT.EX.EXSTDY" Value="56"/>
      <ItemData ItemOID="IT.EX.EXENDY" Value="56"/>
    </ItemGroupData>
    <ItemGroupData ItemGroupOID="IG.EX" data:ItemGroupDataSeq="171">
      <ItemData ItemOID="IT.EX.STUDYID" Value="CDISCPILOT01"/>
      <ItemData ItemOID="IT.EX.DOMAIN" Value="EX"/>
      <ItemData ItemOID="IT.EX.USUBJID" Value="CDISC003"/>
      <ItemData ItemOID="IT.EX.SPDEVID" Value="DEV0003"/>
      <ItemData ItemOID="IT.EX.EXSEQ" Value="57"/>
      <ItemData ItemOID="IT.EX.EXTRT" Value="ZANOMALINE"/>
      <ItemData ItemOID="IT.EX.EXDOSE" Value="81"/>
      <ItemData ItemOID="IT.EX.EXDOSU" Value="mg"/>
      <ItemData ItemOID="IT.EX.EXDOSFRM" Value="INJECTION"/>
      <ItemData ItemOID="IT.EX.EXDOSFRQ" Value="QD"/>
      <ItemData ItemOID="IT.EX.EXROUTE" Value="SUBCUTANEOUS"/>
      <ItemData ItemOID="IT.EX.EXLOT" Value="SDS580-359"/>
      <ItemData ItemOID="IT.EX.EPOCH" Value="TREATMENT"/>
      <ItemData ItemOID="IT.EX.EXSTDTC" Value="2013-10-24"/>
      <ItemData ItemOID="IT.EX.EXENDTC" Value="2013-10-24"/>
      <ItemData ItemOID="IT.EX.EXSTDY" Value="57"/>
      <ItemData ItemOID="IT.EX.EXENDY" Value="57"/>
    </ItemGroupData>
    <ItemGroupData ItemGroupOID="IG.EX" data:ItemGroupDataSeq="172">
      <ItemData ItemOID="IT.EX.STUDYID" Value="CDISCPILOT01"/>
      <ItemData ItemOID="IT.EX.DOMAIN" Value="EX"/>
      <ItemData ItemOID="IT.EX.USUBJID" Value="CDISC003"/>
      <ItemData ItemOID="IT.EX.SPDEVID" Value="DEV0003"/>
      <ItemData ItemOID="IT.EX.EXSEQ" Value="58"/>
      <ItemData ItemOID="IT.EX.EXTRT" Value="ZANOMALINE"/>
      <ItemData ItemOID="IT.EX.EXDOSE" Value="81"/>
      <ItemData ItemOID="IT.EX.EXDOSU" Value="mg"/>
      <ItemData ItemOID="IT.EX.EXDOSFRM" Value="INJECTION"/>
      <ItemData ItemOID="IT.EX.EXDOSFRQ" Value="QD"/>
      <ItemData ItemOID="IT.EX.EXROUTE" Value="SUBCUTANEOUS"/>
      <ItemData ItemOID="IT.EX.EXLOT" Value="SDS580-359"/>
      <ItemData ItemOID="IT.EX.EPOCH" Value="TREATMENT"/>
      <ItemData ItemOID="IT.EX.EXSTDTC" Value="2013-10-25"/>
      <ItemData ItemOID="IT.EX.EXENDTC" Value="2013-10-25"/>
      <ItemData ItemOID="IT.EX.EXSTDY" Value="58"/>
      <ItemData ItemOID="IT.EX.EXENDY" Value="58"/>
    </ItemGroupData>
    <ItemGroupData ItemGroupOID="IG.EX" data:ItemGroupDataSeq="173">
      <ItemData ItemOID="IT.EX.STUDYID" Value="CDISCPILOT01"/>
      <ItemData ItemOID="IT.EX.DOMAIN" Value="EX"/>
      <ItemData ItemOID="IT.EX.USUBJID" Value="CDISC003"/>
      <ItemData ItemOID="IT.EX.SPDEVID" Value="DEV0003"/>
      <ItemData ItemOID="IT.EX.EXSEQ" Value="59"/>
      <ItemData ItemOID="IT.EX.EXTRT" Value="ZANOMALINE"/>
      <ItemData ItemOID="IT.EX.EXDOSE" Value="81"/>
      <ItemData ItemOID="IT.EX.EXDOSU" Value="mg"/>
      <ItemData ItemOID="IT.EX.EXDOSFRM" Value="INJECTION"/>
      <ItemData ItemOID="IT.EX.EXDOSFRQ" Value="QD"/>
      <ItemData ItemOID="IT.EX.EXROUTE" Value="SUBCUTANEOUS"/>
      <ItemData ItemOID="IT.EX.EXLOT" Value="SDS580-359"/>
      <ItemData ItemOID="IT.EX.EPOCH" Value="TREATMENT"/>
      <ItemData ItemOID="IT.EX.EXSTDTC" Value="2013-10-26"/>
      <ItemData ItemOID="IT.EX.EXENDTC" Value="2013-10-26"/>
      <ItemData ItemOID="IT.EX.EXSTDY" Value="59"/>
      <ItemData ItemOID="IT.EX.EXENDY" Value="59"/>
    </ItemGroupData>
    <ItemGroupData ItemGroupOID="IG.EX" data:ItemGroupDataSeq="174">
      <ItemData ItemOID="IT.EX.STUDYID" Value="CDISCPILOT01"/>
      <ItemData ItemOID="IT.EX.DOMAIN" Value="EX"/>
      <ItemData ItemOID="IT.EX.USUBJID" Value="CDISC003"/>
      <ItemData ItemOID="IT.EX.SPDEVID" Value="DEV0003"/>
      <ItemData ItemOID="IT.EX.EXSEQ" Value="60"/>
      <ItemData ItemOID="IT.EX.EXTRT" Value="ZANOMALINE"/>
      <ItemData ItemOID="IT.EX.EXDOSE" Value="81"/>
      <ItemData ItemOID="IT.EX.EXDOSU" Value="mg"/>
      <ItemData ItemOID="IT.EX.EXDOSFRM" Value="INJECTION"/>
      <ItemData ItemOID="IT.EX.EXDOSFRQ" Value="QD"/>
      <ItemData ItemOID="IT.EX.EXROUTE" Value="SUBCUTANEOUS"/>
      <ItemData ItemOID="IT.EX.EXLOT" Value="SDS580-359"/>
      <ItemData ItemOID="IT.EX.EPOCH" Value="TREATMENT"/>
      <ItemData ItemOID="IT.EX.EXSTDTC" Value="2013-10-27"/>
      <ItemData ItemOID="IT.EX.EXENDTC" Value="2013-10-27"/>
      <ItemData ItemOID="IT.EX.EXSTDY" Value="60"/>
      <ItemData ItemOID="IT.EX.EXENDY" Value="60"/>
    </ItemGroupData>
    <ItemGroupData ItemGroupOID="IG.EX" data:ItemGroupDataSeq="175">
      <ItemData ItemOID="IT.EX.STUDYID" Value="CDISCPILOT01"/>
      <ItemData ItemOID="IT.EX.DOMAIN" Value="EX"/>
      <ItemData ItemOID="IT.EX.USUBJID" Value="CDISC003"/>
      <ItemData ItemOID="IT.EX.SPDEVID" Value="DEV0003"/>
      <ItemData ItemOID="IT.EX.EXSEQ" Value="61"/>
      <ItemData ItemOID="IT.EX.EXTRT" Value="ZANOMALINE"/>
      <ItemData ItemOID="IT.EX.EXDOSE" Value="81"/>
      <ItemData ItemOID="IT.EX.EXDOSU" Value="mg"/>
      <ItemData ItemOID="IT.EX.EXDOSFRM" Value="INJECTION"/>
      <ItemData ItemOID="IT.EX.EXDOSFRQ" Value="QD"/>
      <ItemData ItemOID="IT.EX.EXROUTE" Value="SUBCUTANEOUS"/>
      <ItemData ItemOID="IT.EX.EXLOT" Value="SDS580-359"/>
      <ItemData ItemOID="IT.EX.EPOCH" Value="TREATMENT"/>
      <ItemData ItemOID="IT.EX.EXSTDTC" Value="2013-10-28"/>
      <ItemData ItemOID="IT.EX.EXENDTC" Value="2013-10-28"/>
      <ItemData ItemOID="IT.EX.EXSTDY" Value="61"/>
      <ItemData ItemOID="IT.EX.EXENDY" Value="61"/>
    </ItemGroupData>
    <ItemGroupData ItemGroupOID="IG.EX" data:ItemGroupDataSeq="176">
      <ItemData ItemOID="IT.EX.STUDYID" Value="CDISCPILOT01"/>
      <ItemData ItemOID="IT.EX.DOMAIN" Value="EX"/>
      <ItemData ItemOID="IT.EX.USUBJID" Value="CDISC003"/>
      <ItemData ItemOID="IT.EX.SPDEVID" Value="DEV0003"/>
      <ItemData ItemOID="IT.EX.EXSEQ" Value="62"/>
      <ItemData ItemOID="IT.EX.EXTRT" Value="ZANOMALINE"/>
      <ItemData ItemOID="IT.EX.EXDOSE" Value="81"/>
      <ItemData ItemOID="IT.EX.EXDOSU" Value="mg"/>
      <ItemData ItemOID="IT.EX.EXDOSFRM" Value="INJECTION"/>
      <ItemData ItemOID="IT.EX.EXDOSFRQ" Value="QD"/>
      <ItemData ItemOID="IT.EX.EXROUTE" Value="SUBCUTANEOUS"/>
      <ItemData ItemOID="IT.EX.EXLOT" Value="SDS580-359"/>
      <ItemData ItemOID="IT.EX.EPOCH" Value="TREATMENT"/>
      <ItemData ItemOID="IT.EX.EXSTDTC" Value="2013-10-29"/>
      <ItemData ItemOID="IT.EX.EXENDTC" Value="2013-10-29"/>
      <ItemData ItemOID="IT.EX.EXSTDY" Value="62"/>
      <ItemData ItemOID="IT.EX.EXENDY" Value="62"/>
    </ItemGroupData>
    <ItemGroupData ItemGroupOID="IG.EX" data:ItemGroupDataSeq="177">
      <ItemData ItemOID="IT.EX.STUDYID" Value="CDISCPILOT01"/>
      <ItemData ItemOID="IT.EX.DOMAIN" Value="EX"/>
      <ItemData ItemOID="IT.EX.USUBJID" Value="CDISC003"/>
      <ItemData ItemOID="IT.EX.SPDEVID" Value="DEV0003"/>
      <ItemData ItemOID="IT.EX.EXSEQ" Value="63"/>
      <ItemData ItemOID="IT.EX.EXTRT" Value="ZANOMALINE"/>
      <ItemData ItemOID="IT.EX.EXDOSE" Value="81"/>
      <ItemData ItemOID="IT.EX.EXDOSU" Value="mg"/>
      <ItemData ItemOID="IT.EX.EXDOSFRM" Value="INJECTION"/>
      <ItemData ItemOID="IT.EX.EXDOSFRQ" Value="QD"/>
      <ItemData ItemOID="IT.EX.EXROUTE" Value="SUBCUTANEOUS"/>
      <ItemData ItemOID="IT.EX.EXLOT" Value="SDS580-359"/>
      <ItemData ItemOID="IT.EX.EPOCH" Value="TREATMENT"/>
      <ItemData ItemOID="IT.EX.EXSTDTC" Value="2013-10-30"/>
      <ItemData ItemOID="IT.EX.EXENDTC" Value="2013-10-30"/>
      <ItemData ItemOID="IT.EX.EXSTDY" Value="63"/>
      <ItemData ItemOID="IT.EX.EXENDY" Value="63"/>
    </ItemGroupData>
    <ItemGroupData ItemGroupOID="IG.EX" data:ItemGroupDataSeq="178">
      <ItemData ItemOID="IT.EX.STUDYID" Value="CDISCPILOT01"/>
      <ItemData ItemOID="IT.EX.DOMAIN" Value="EX"/>
      <ItemData ItemOID="IT.EX.USUBJID" Value="CDISC003"/>
      <ItemData ItemOID="IT.EX.SPDEVID" Value="DEV0003"/>
      <ItemData ItemOID="IT.EX.EXSEQ" Value="64"/>
      <ItemData ItemOID="IT.EX.EXTRT" Value="ZANOMALINE"/>
      <ItemData ItemOID="IT.EX.EXDOSE" Value="81"/>
      <ItemData ItemOID="IT.EX.EXDOSU" Value="mg"/>
      <ItemData ItemOID="IT.EX.EXDOSFRM" Value="INJECTION"/>
      <ItemData ItemOID="IT.EX.EXDOSFRQ" Value="QD"/>
      <ItemData ItemOID="IT.EX.EXROUTE" Value="SUBCUTANEOUS"/>
      <ItemData ItemOID="IT.EX.EXLOT" Value="SDS580-359"/>
      <ItemData ItemOID="IT.EX.EPOCH" Value="TREATMENT"/>
      <ItemData ItemOID="IT.EX.EXSTDTC" Value="2013-10-31"/>
      <ItemData ItemOID="IT.EX.EXENDTC" Value="2013-10-31"/>
      <ItemData ItemOID="IT.EX.EXSTDY" Value="64"/>
      <ItemData ItemOID="IT.EX.EXENDY" Value="64"/>
    </ItemGroupData>
    <ItemGroupData ItemGroupOID="IG.EX" data:ItemGroupDataSeq="179">
      <ItemData ItemOID="IT.EX.STUDYID" Value="CDISCPILOT01"/>
      <ItemData ItemOID="IT.EX.DOMAIN" Value="EX"/>
      <ItemData ItemOID="IT.EX.USUBJID" Value="CDISC003"/>
      <ItemData ItemOID="IT.EX.SPDEVID" Value="DEV0003"/>
      <ItemData ItemOID="IT.EX.EXSEQ" Value="65"/>
      <ItemData ItemOID="IT.EX.EXTRT" Value="ZANOMALINE"/>
      <ItemData ItemOID="IT.EX.EXDOSE" Value="81"/>
      <ItemData ItemOID="IT.EX.EXDOSU" Value="mg"/>
      <ItemData ItemOID="IT.EX.EXDOSFRM" Value="INJECTION"/>
      <ItemData ItemOID="IT.EX.EXDOSFRQ" Value="QD"/>
      <ItemData ItemOID="IT.EX.EXROUTE" Value="SUBCUTANEOUS"/>
      <ItemData ItemOID="IT.EX.EXLOT" Value="SDS580-359"/>
      <ItemData ItemOID="IT.EX.EPOCH" Value="TREATMENT"/>
      <ItemData ItemOID="IT.EX.EXSTDTC" Value="2013-11-01"/>
      <ItemData ItemOID="IT.EX.EXENDTC" Value="2013-11-01"/>
      <ItemData ItemOID="IT.EX.EXSTDY" Value="65"/>
      <ItemData ItemOID="IT.EX.EXENDY" Value="65"/>
    </ItemGroupData>
    <ItemGroupData ItemGroupOID="IG.EX" data:ItemGroupDataSeq="180">
      <ItemData ItemOID="IT.EX.STUDYID" Value="CDISCPILOT01"/>
      <ItemData ItemOID="IT.EX.DOMAIN" Value="EX"/>
      <ItemData ItemOID="IT.EX.USUBJID" Value="CDISC003"/>
      <ItemData ItemOID="IT.EX.SPDEVID" Value="DEV0003"/>
      <ItemData ItemOID="IT.EX.EXSEQ" Value="66"/>
      <ItemData ItemOID="IT.EX.EXTRT" Value="ZANOMALINE"/>
      <ItemData ItemOID="IT.EX.EXDOSE" Value="81"/>
      <ItemData ItemOID="IT.EX.EXDOSU" Value="mg"/>
      <ItemData ItemOID="IT.EX.EXDOSFRM" Value="INJECTION"/>
      <ItemData ItemOID="IT.EX.EXDOSFRQ" Value="QD"/>
      <ItemData ItemOID="IT.EX.EXROUTE" Value="SUBCUTANEOUS"/>
      <ItemData ItemOID="IT.EX.EXLOT" Value="SDS580-359"/>
      <ItemData ItemOID="IT.EX.EPOCH" Value="TREATMENT"/>
      <ItemData ItemOID="IT.EX.EXSTDTC" Value="2013-11-02"/>
      <ItemData ItemOID="IT.EX.EXENDTC" Value="2013-11-02"/>
      <ItemData ItemOID="IT.EX.EXSTDY" Value="66"/>
      <ItemData ItemOID="IT.EX.EXENDY" Value="66"/>
    </ItemGroupData>
    <ItemGroupData ItemGroupOID="IG.EX" data:ItemGroupDataSeq="181">
      <ItemData ItemOID="IT.EX.STUDYID" Value="CDISCPILOT01"/>
      <ItemData ItemOID="IT.EX.DOMAIN" Value="EX"/>
      <ItemData ItemOID="IT.EX.USUBJID" Value="CDISC003"/>
      <ItemData ItemOID="IT.EX.SPDEVID" Value="DEV0003"/>
      <ItemData ItemOID="IT.EX.EXSEQ" Value="67"/>
      <ItemData ItemOID="IT.EX.EXTRT" Value="ZANOMALINE"/>
      <ItemData ItemOID="IT.EX.EXDOSE" Value="81"/>
      <ItemData ItemOID="IT.EX.EXDOSU" Value="mg"/>
      <ItemData ItemOID="IT.EX.EXDOSFRM" Value="INJECTION"/>
      <ItemData ItemOID="IT.EX.EXDOSFRQ" Value="QD"/>
      <ItemData ItemOID="IT.EX.EXROUTE" Value="SUBCUTANEOUS"/>
      <ItemData ItemOID="IT.EX.EXLOT" Value="SDS580-359"/>
      <ItemData ItemOID="IT.EX.EPOCH" Value="TREATMENT"/>
      <ItemData ItemOID="IT.EX.EXSTDTC" Value="2013-11-03"/>
      <ItemData ItemOID="IT.EX.EXENDTC" Value="2013-11-03"/>
      <ItemData ItemOID="IT.EX.EXSTDY" Value="67"/>
      <ItemData ItemOID="IT.EX.EXENDY" Value="67"/>
    </ItemGroupData>
    <ItemGroupData ItemGroupOID="IG.EX" data:ItemGroupDataSeq="182">
      <ItemData ItemOID="IT.EX.STUDYID" Value="CDISCPILOT01"/>
      <ItemData ItemOID="IT.EX.DOMAIN" Value="EX"/>
      <ItemData ItemOID="IT.EX.USUBJID" Value="CDISC003"/>
      <ItemData ItemOID="IT.EX.SPDEVID" Value="DEV0003"/>
      <ItemData ItemOID="IT.EX.EXSEQ" Value="68"/>
      <ItemData ItemOID="IT.EX.EXTRT" Value="ZANOMALINE"/>
      <ItemData ItemOID="IT.EX.EXDOSE" Value="81"/>
      <ItemData ItemOID="IT.EX.EXDOSU" Value="mg"/>
      <ItemData ItemOID="IT.EX.EXDOSFRM" Value="INJECTION"/>
      <ItemData ItemOID="IT.EX.EXDOSFRQ" Value="QD"/>
      <ItemData ItemOID="IT.EX.EXROUTE" Value="SUBCUTANEOUS"/>
      <ItemData ItemOID="IT.EX.EXLOT" Value="SDS580-359"/>
      <ItemData ItemOID="IT.EX.EPOCH" Value="TREATMENT"/>
      <ItemData ItemOID="IT.EX.EXSTDTC" Value="2013-11-04"/>
      <ItemData ItemOID="IT.EX.EXENDTC" Value="2013-11-04"/>
      <ItemData ItemOID="IT.EX.EXSTDY" Value="68"/>
      <ItemData ItemOID="IT.EX.EXENDY" Value="68"/>
    </ItemGroupData>
    <ItemGroupData ItemGroupOID="IG.EX" data:ItemGroupDataSeq="183">
      <ItemData ItemOID="IT.EX.STUDYID" Value="CDISCPILOT01"/>
      <ItemData ItemOID="IT.EX.DOMAIN" Value="EX"/>
      <ItemData ItemOID="IT.EX.USUBJID" Value="CDISC003"/>
      <ItemData ItemOID="IT.EX.SPDEVID" Value="DEV0003"/>
      <ItemData ItemOID="IT.EX.EXSEQ" Value="69"/>
      <ItemData ItemOID="IT.EX.EXTRT" Value="ZANOMALINE"/>
      <ItemData ItemOID="IT.EX.EXDOSE" Value="81"/>
      <ItemData ItemOID="IT.EX.EXDOSU" Value="mg"/>
      <ItemData ItemOID="IT.EX.EXDOSFRM" Value="INJECTION"/>
      <ItemData ItemOID="IT.EX.EXDOSFRQ" Value="QD"/>
      <ItemData ItemOID="IT.EX.EXROUTE" Value="SUBCUTANEOUS"/>
      <ItemData ItemOID="IT.EX.EXLOT" Value="SDS580-359"/>
      <ItemData ItemOID="IT.EX.EPOCH" Value="TREATMENT"/>
      <ItemData ItemOID="IT.EX.EXSTDTC" Value="2013-11-05"/>
      <ItemData ItemOID="IT.EX.EXENDTC" Value="2013-11-05"/>
      <ItemData ItemOID="IT.EX.EXSTDY" Value="69"/>
      <ItemData ItemOID="IT.EX.EXENDY" Value="69"/>
    </ItemGroupData>
    <ItemGroupData ItemGroupOID="IG.EX" data:ItemGroupDataSeq="184">
      <ItemData ItemOID="IT.EX.STUDYID" Value="CDISCPILOT01"/>
      <ItemData ItemOID="IT.EX.DOMAIN" Value="EX"/>
      <ItemData ItemOID="IT.EX.USUBJID" Value="CDISC004"/>
      <ItemData ItemOID="IT.EX.SPDEVID" Value="DEV0004"/>
      <ItemData ItemOID="IT.EX.EXSEQ" Value="1"/>
      <ItemData ItemOID="IT.EX.EXTRT" Value="PLACEBO"/>
      <ItemData ItemOID="IT.EX.EXDOSE" Value="0"/>
      <ItemData ItemOID="IT.EX.EXDOSU" Value="mg"/>
      <ItemData ItemOID="IT.EX.EXDOSFRM" Value="INJECTION"/>
      <ItemData ItemOID="IT.EX.EXDOSFRQ" Value="QD"/>
      <ItemData ItemOID="IT.EX.EXROUTE" Value="SUBCUTANEOUS"/>
      <ItemData ItemOID="IT.EX.EXLOT" Value="SDS580-485"/>
      <ItemData ItemOID="IT.EX.EPOCH" Value="TREATMENT"/>
      <ItemData ItemOID="IT.EX.EXSTDTC" Value="2013-10-08"/>
      <ItemData ItemOID="IT.EX.EXENDTC" Value="2013-10-08"/>
      <ItemData ItemOID="IT.EX.EXSTDY" Value="1"/>
      <ItemData ItemOID="IT.EX.EXENDY" Value="1"/>
    </ItemGroupData>
    <ItemGroupData ItemGroupOID="IG.EX" data:ItemGroupDataSeq="185">
      <ItemData ItemOID="IT.EX.STUDYID" Value="CDISCPILOT01"/>
      <ItemData ItemOID="IT.EX.DOMAIN" Value="EX"/>
      <ItemData ItemOID="IT.EX.USUBJID" Value="CDISC004"/>
      <ItemData ItemOID="IT.EX.SPDEVID" Value="DEV0004"/>
      <ItemData ItemOID="IT.EX.EXSEQ" Value="2"/>
      <ItemData ItemOID="IT.EX.EXTRT" Value="PLACEBO"/>
      <ItemData ItemOID="IT.EX.EXDOSE" Value="0"/>
      <ItemData ItemOID="IT.EX.EXDOSU" Value="mg"/>
      <ItemData ItemOID="IT.EX.EXDOSFRM" Value="INJECTION"/>
      <ItemData ItemOID="IT.EX.EXDOSFRQ" Value="QD"/>
      <ItemData ItemOID="IT.EX.EXROUTE" Value="SUBCUTANEOUS"/>
      <ItemData ItemOID="IT.EX.EXLOT" Value="SDS580-485"/>
      <ItemData ItemOID="IT.EX.EPOCH" Value="TREATMENT"/>
      <ItemData ItemOID="IT.EX.EXSTDTC" Value="2013-10-09"/>
      <ItemData ItemOID="IT.EX.EXENDTC" Value="2013-10-09"/>
      <ItemData ItemOID="IT.EX.EXSTDY" Value="2"/>
      <ItemData ItemOID="IT.EX.EXENDY" Value="2"/>
    </ItemGroupData>
    <ItemGroupData ItemGroupOID="IG.EX" data:ItemGroupDataSeq="186">
      <ItemData ItemOID="IT.EX.STUDYID" Value="CDISCPILOT01"/>
      <ItemData ItemOID="IT.EX.DOMAIN" Value="EX"/>
      <ItemData ItemOID="IT.EX.USUBJID" Value="CDISC004"/>
