<?xml version="1.0" encoding="UTF-8"?>
<!-- Dataset-XML: Untyped Data Example  --> 
<!-- Built from the SAS XPT files published with the SDTM-MSG (SDTM Metadata Submission Guidelines) V2.0 --> 
<ODM
  xmlns="http://www.cdisc.org/ns/odm/v1.3"
  xmlns:xlink="http://www.w3.org/1999/xlink" 
  xmlns:data="http://www.cdisc.org/ns/Dataset-XML/v1.0"
  FileType="Snapshot"
  ODMVersion="1.3.2"
  data:DatasetXMLVersion="1.0.0"
  FileOID="www.cdisc.org/StudyMSGv2/1/Define-XML_2.1.0(IG.QSPH).Data(QSPH)"
  PriorFileOID="www.cdisc.org/StudyMSGv2/1/Define-XML_2.1.0"
  CreationDateTime="2020-08-21T09:21:13"
  Originator="CDISC MSG Team"
  SourceSystem="M.Hungria-System"
  SourceSystemVersion="2.1-A1"
  >
  <ClinicalData
    StudyOID="cdisc.com/CDISCPILOT01"
    MetaDataVersionOID="MDV.MSGv2.0.SDTMIG.3.3.SDTM.1.7">
    <!-- Dataset (QSPH) -->
    <ItemGroupData ItemGroupOID="IG.QSPH" data:ItemGroupDataSeq="1">
      <ItemData ItemOID="IT.QSPH.STUDYID" Value="CDISCPILOT01"/>
      <ItemData ItemOID="IT.QSPH.DOMAIN" Value="QS"/>
      <ItemData ItemOID="IT.QSPH.USUBJID" Value="CDISC001"/>
      <ItemData ItemOID="IT.QSPH.QSSEQ" Value="1"/>
      <ItemData ItemOID="IT.QSPH.QSTESTCD" Value="PHQ0101"/>
      <ItemData ItemOID="IT.QSPH.QSTEST" Value="PHQ01-Little Interest/Pleasure in Things"/>
      <ItemData ItemOID="IT.QSPH.QSCAT" Value="PHQ-9"/>
      <ItemData ItemOID="IT.QSPH.QSORRES" Value="Several days"/>
      <ItemData ItemOID="IT.QSPH.QSSTRESC" Value="1"/>
      <ItemData ItemOID="IT.QSPH.QSSTRESN" Value="1"/>
      <ItemData ItemOID="IT.QSPH.QSLOBXFL" Value="Y"/>
      <ItemData ItemOID="IT.QSPH.VISITNUM" Value="3"/>
      <ItemData ItemOID="IT.QSPH.VISIT" Value="BASELINE"/>
      <ItemData ItemOID="IT.QSPH.EPOCH" Value="SCREENING"/>
      <ItemData ItemOID="IT.QSPH.QSDTC" Value="2012-11-30"/>
      <ItemData ItemOID="IT.QSPH.QSDY" Value="1"/>
      <ItemData ItemOID="IT.QSPH.QSEVLINT" Value="-P2W"/>
    </ItemGroupData>
    <ItemGroupData ItemGroupOID="IG.QSPH" data:ItemGroupDataSeq="2">
      <ItemData ItemOID="IT.QSPH.STUDYID" Value="CDISCPILOT01"/>
      <ItemData ItemOID="IT.QSPH.DOMAIN" Value="QS"/>
      <ItemData ItemOID="IT.QSPH.USUBJID" Value="CDISC001"/>
      <ItemData ItemOID="IT.QSPH.QSSEQ" Value="2"/>
      <ItemData ItemOID="IT.QSPH.QSTESTCD" Value="PHQ0102"/>
      <ItemData ItemOID="IT.QSPH.QSTEST" Value="PHQ01-Feeling Down Depressed or Hopeless"/>
      <ItemData ItemOID="IT.QSPH.QSCAT" Value="PHQ-9"/>
      <ItemData ItemOID="IT.QSPH.QSORRES" Value="Not at all"/>
      <ItemData ItemOID="IT.QSPH.QSSTRESC" Value="0"/>
      <ItemData ItemOID="IT.QSPH.QSSTRESN" Value="0"/>
      <ItemData ItemOID="IT.QSPH.QSLOBXFL" Value="Y"/>
      <ItemData ItemOID="IT.QSPH.VISITNUM" Value="3"/>
      <ItemData ItemOID="IT.QSPH.VISIT" Value="BASELINE"/>
      <ItemData ItemOID="IT.QSPH.EPOCH" Value="SCREENING"/>
      <ItemData ItemOID="IT.QSPH.QSDTC" Value="2012-11-30"/>
      <ItemData ItemOID="IT.QSPH.QSDY" Value="1"/>
      <ItemData ItemOID="IT.QSPH.QSEVLINT" Value="-P2W"/>
    </ItemGroupData>
    <ItemGroupData ItemGroupOID="IG.QSPH" data:ItemGroupDataSeq="3">
      <ItemData ItemOID="IT.QSPH.STUDYID" Value="CDISCPILOT01"/>
      <ItemData ItemOID="IT.QSPH.DOMAIN" Value="QS"/>
      <ItemData ItemOID="IT.QSPH.USUBJID" Value="CDISC001"/>
      <ItemData ItemOID="IT.QSPH.QSSEQ" Value="3"/>
      <ItemData ItemOID="IT.QSPH.QSTESTCD" Value="PHQ0103"/>
      <ItemData ItemOID="IT.QSPH.QSTEST" Value="PHQ01-Trouble Falling or Staying Asleep"/>
      <ItemData ItemOID="IT.QSPH.QSCAT" Value="PHQ-9"/>
      <ItemData ItemOID="IT.QSPH.QSORRES" Value="Several days"/>
      <ItemData ItemOID="IT.QSPH.QSSTRESC" Value="1"/>
      <ItemData ItemOID="IT.QSPH.QSSTRESN" Value="1"/>
      <ItemData ItemOID="IT.QSPH.QSLOBXFL" Value="Y"/>
      <ItemData ItemOID="IT.QSPH.VISITNUM" Value="3"/>
      <ItemData ItemOID="IT.QSPH.VISIT" Value="BASELINE"/>
      <ItemData ItemOID="IT.QSPH.EPOCH" Value="SCREENING"/>
      <ItemData ItemOID="IT.QSPH.QSDTC" Value="2012-11-30"/>
      <ItemData ItemOID="IT.QSPH.QSDY" Value="1"/>
      <ItemData ItemOID="IT.QSPH.QSEVLINT" Value="-P2W"/>
    </ItemGroupData>
    <ItemGroupData ItemGroupOID="IG.QSPH" data:ItemGroupDataSeq="4">
      <ItemData ItemOID="IT.QSPH.STUDYID" Value="CDISCPILOT01"/>
      <ItemData ItemOID="IT.QSPH.DOMAIN" Value="QS"/>
      <ItemData ItemOID="IT.QSPH.USUBJID" Value="CDISC001"/>
      <ItemData ItemOID="IT.QSPH.QSSEQ" Value="4"/>
      <ItemData ItemOID="IT.QSPH.QSTESTCD" Value="PHQ0104"/>
      <ItemData ItemOID="IT.QSPH.QSTEST" Value="PHQ01-Feeling Tired or Little Energy"/>
      <ItemData ItemOID="IT.QSPH.QSCAT" Value="PHQ-9"/>
      <ItemData ItemOID="IT.QSPH.QSORRES" Value="Not at all"/>
      <ItemData ItemOID="IT.QSPH.QSSTRESC" Value="0"/>
      <ItemData ItemOID="IT.QSPH.QSSTRESN" Value="0"/>
      <ItemData ItemOID="IT.QSPH.QSLOBXFL" Value="Y"/>
      <ItemData ItemOID="IT.QSPH.VISITNUM" Value="3"/>
      <ItemData ItemOID="IT.QSPH.VISIT" Value="BASELINE"/>
      <ItemData ItemOID="IT.QSPH.EPOCH" Value="SCREENING"/>
      <ItemData ItemOID="IT.QSPH.QSDTC" Value="2012-11-30"/>
      <ItemData ItemOID="IT.QSPH.QSDY" Value="1"/>
      <ItemData ItemOID="IT.QSPH.QSEVLINT" Value="-P2W"/>
    </ItemGroupData>
    <ItemGroupData ItemGroupOID="IG.QSPH" data:ItemGroupDataSeq="5">
      <ItemData ItemOID="IT.QSPH.STUDYID" Value="CDISCPILOT01"/>
      <ItemData ItemOID="IT.QSPH.DOMAIN" Value="QS"/>
      <ItemData ItemOID="IT.QSPH.USUBJID" Value="CDISC001"/>
      <ItemData ItemOID="IT.QSPH.QSSEQ" Value="5"/>
      <ItemData ItemOID="IT.QSPH.QSTESTCD" Value="PHQ0105"/>
      <ItemData ItemOID="IT.QSPH.QSTEST" Value="PHQ01-Poor Appetite or Overeating"/>
      <ItemData ItemOID="IT.QSPH.QSCAT" Value="PHQ-9"/>
      <ItemData ItemOID="IT.QSPH.QSORRES" Value="Not at all"/>
      <ItemData ItemOID="IT.QSPH.QSSTRESC" Value="0"/>
      <ItemData ItemOID="IT.QSPH.QSSTRESN" Value="0"/>
      <ItemData ItemOID="IT.QSPH.QSLOBXFL" Value="Y"/>
      <ItemData ItemOID="IT.QSPH.VISITNUM" Value="3"/>
      <ItemData ItemOID="IT.QSPH.VISIT" Value="BASELINE"/>
      <ItemData ItemOID="IT.QSPH.EPOCH" Value="SCREENING"/>
      <ItemData ItemOID="IT.QSPH.QSDTC" Value="2012-11-30"/>
      <ItemData ItemOID="IT.QSPH.QSDY" Value="1"/>
      <ItemData ItemOID="IT.QSPH.QSEVLINT" Value="-P2W"/>
    </ItemGroupData>
    <ItemGroupData ItemGroupOID="IG.QSPH" data:ItemGroupDataSeq="6">
      <ItemData ItemOID="IT.QSPH.STUDYID" Value="CDISCPILOT01"/>
      <ItemData ItemOID="IT.QSPH.DOMAIN" Value="QS"/>
      <ItemData ItemOID="IT.QSPH.USUBJID" Value="CDISC001"/>
      <ItemData ItemOID="IT.QSPH.QSSEQ" Value="6"/>
      <ItemData ItemOID="IT.QSPH.QSTESTCD" Value="PHQ0106"/>
      <ItemData ItemOID="IT.QSPH.QSTEST" Value="PHQ01-Feeling Bad About Yourself"/>
      <ItemData ItemOID="IT.QSPH.QSCAT" Value="PHQ-9"/>
      <ItemData ItemOID="IT.QSPH.QSORRES" Value="Several days"/>
      <ItemData ItemOID="IT.QSPH.QSSTRESC" Value="1"/>
      <ItemData ItemOID="IT.QSPH.QSSTRESN" Value="1"/>
      <ItemData ItemOID="IT.QSPH.QSLOBXFL" Value="Y"/>
      <ItemData ItemOID="IT.QSPH.VISITNUM" Value="3"/>
      <ItemData ItemOID="IT.QSPH.VISIT" Value="BASELINE"/>
      <ItemData ItemOID="IT.QSPH.EPOCH" Value="SCREENING"/>
      <ItemData ItemOID="IT.QSPH.QSDTC" Value="2012-11-30"/>
      <ItemData ItemOID="IT.QSPH.QSDY" Value="1"/>
      <ItemData ItemOID="IT.QSPH.QSEVLINT" Value="-P2W"/>
    </ItemGroupData>
    <ItemGroupData ItemGroupOID="IG.QSPH" data:ItemGroupDataSeq="7">
      <ItemData ItemOID="IT.QSPH.STUDYID" Value="CDISCPILOT01"/>
      <ItemData ItemOID="IT.QSPH.DOMAIN" Value="QS"/>
      <ItemData ItemOID="IT.QSPH.USUBJID" Value="CDISC001"/>
      <ItemData ItemOID="IT.QSPH.QSSEQ" Value="7"/>
      <ItemData ItemOID="IT.QSPH.QSTESTCD" Value="PHQ0107"/>
      <ItemData ItemOID="IT.QSPH.QSTEST" Value="PHQ01-Trouble Concentrating on Things"/>
      <ItemData ItemOID="IT.QSPH.QSCAT" Value="PHQ-9"/>
      <ItemData ItemOID="IT.QSPH.QSORRES" Value="More than half the days"/>
      <ItemData ItemOID="IT.QSPH.QSSTRESC" Value="2"/>
      <ItemData ItemOID="IT.QSPH.QSSTRESN" Value="2"/>
      <ItemData ItemOID="IT.QSPH.QSLOBXFL" Value="Y"/>
      <ItemData ItemOID="IT.QSPH.VISITNUM" Value="3"/>
      <ItemData ItemOID="IT.QSPH.VISIT" Value="BASELINE"/>
      <ItemData ItemOID="IT.QSPH.EPOCH" Value="SCREENING"/>
      <ItemData ItemOID="IT.QSPH.QSDTC" Value="2012-11-30"/>
      <ItemData ItemOID="IT.QSPH.QSDY" Value="1"/>
      <ItemData ItemOID="IT.QSPH.QSEVLINT" Value="-P2W"/>
    </ItemGroupData>
    <ItemGroupData ItemGroupOID="IG.QSPH" data:ItemGroupDataSeq="8">
      <ItemData ItemOID="IT.QSPH.STUDYID" Value="CDISCPILOT01"/>
      <ItemData ItemOID="IT.QSPH.DOMAIN" Value="QS"/>
      <ItemData ItemOID="IT.QSPH.USUBJID" Value="CDISC001"/>
      <ItemData ItemOID="IT.QSPH.QSSEQ" Value="8"/>
      <ItemData ItemOID="IT.QSPH.QSTESTCD" Value="PHQ0108"/>
      <ItemData ItemOID="IT.QSPH.QSTEST" Value="PHQ01-Moving Slowly or Fidgety/Restless"/>
      <ItemData ItemOID="IT.QSPH.QSCAT" Value="PHQ-9"/>
      <ItemData ItemOID="IT.QSPH.QSORRES" Value="Not at all"/>
      <ItemData ItemOID="IT.QSPH.QSSTRESC" Value="0"/>
      <ItemData ItemOID="IT.QSPH.QSSTRESN" Value="0"/>
      <ItemData ItemOID="IT.QSPH.QSLOBXFL" Value="Y"/>
      <ItemData ItemOID="IT.QSPH.VISITNUM" Value="3"/>
      <ItemData ItemOID="IT.QSPH.VISIT" Value="BASELINE"/>
      <ItemData ItemOID="IT.QSPH.EPOCH" Value="SCREENING"/>
      <ItemData ItemOID="IT.QSPH.QSDTC" Value="2012-11-30"/>
      <ItemData ItemOID="IT.QSPH.QSDY" Value="1"/>
      <ItemData ItemOID="IT.QSPH.QSEVLINT" Value="-P2W"/>
    </ItemGroupData>
    <ItemGroupData ItemGroupOID="IG.QSPH" data:ItemGroupDataSeq="9">
      <ItemData ItemOID="IT.QSPH.STUDYID" Value="CDISCPILOT01"/>
      <ItemData ItemOID="IT.QSPH.DOMAIN" Value="QS"/>
      <ItemData ItemOID="IT.QSPH.USUBJID" Value="CDISC001"/>
      <ItemData ItemOID="IT.QSPH.QSSEQ" Value="9"/>
      <ItemData ItemOID="IT.QSPH.QSTESTCD" Value="PHQ0109"/>
      <ItemData ItemOID="IT.QSPH.QSTEST" Value="PHQ01-Thoughts You Be Better Off Dead"/>
      <ItemData ItemOID="IT.QSPH.QSCAT" Value="PHQ-9"/>
      <ItemData ItemOID="IT.QSPH.QSORRES" Value="Not at all"/>
      <ItemData ItemOID="IT.QSPH.QSSTRESC" Value="0"/>
      <ItemData ItemOID="IT.QSPH.QSSTRESN" Value="0"/>
      <ItemData ItemOID="IT.QSPH.QSLOBXFL" Value="Y"/>
      <ItemData ItemOID="IT.QSPH.VISITNUM" Value="3"/>
      <ItemData ItemOID="IT.QSPH.VISIT" Value="BASELINE"/>
      <ItemData ItemOID="IT.QSPH.EPOCH" Value="SCREENING"/>
      <ItemData ItemOID="IT.QSPH.QSDTC" Value="2012-11-30"/>
      <ItemData ItemOID="IT.QSPH.QSDY" Value="1"/>
      <ItemData ItemOID="IT.QSPH.QSEVLINT" Value="-P2W"/>
    </ItemGroupData>
    <ItemGroupData ItemGroupOID="IG.QSPH" data:ItemGroupDataSeq="10">
      <ItemData ItemOID="IT.QSPH.STUDYID" Value="CDISCPILOT01"/>
      <ItemData ItemOID="IT.QSPH.DOMAIN" Value="QS"/>
      <ItemData ItemOID="IT.QSPH.USUBJID" Value="CDISC001"/>
      <ItemData ItemOID="IT.QSPH.QSSEQ" Value="10"/>
      <ItemData ItemOID="IT.QSPH.QSTESTCD" Value="PHQ0110"/>
      <ItemData ItemOID="IT.QSPH.QSTEST" Value="PHQ01-Difficult to Work/Take Care Things"/>
      <ItemData ItemOID="IT.QSPH.QSCAT" Value="PHQ-9"/>
      <ItemData ItemOID="IT.QSPH.QSORRES" Value="Not difficult at all"/>
      <ItemData ItemOID="IT.QSPH.QSSTRESC" Value="Not difficult at all"/>
      <ItemData ItemOID="IT.QSPH.QSLOBXFL" Value="Y"/>
      <ItemData ItemOID="IT.QSPH.VISITNUM" Value="3"/>
      <ItemData ItemOID="IT.QSPH.VISIT" Value="BASELINE"/>
      <ItemData ItemOID="IT.QSPH.EPOCH" Value="SCREENING"/>
      <ItemData ItemOID="IT.QSPH.QSDTC" Value="2012-11-30"/>
      <ItemData ItemOID="IT.QSPH.QSDY" Value="1"/>
      <ItemData ItemOID="IT.QSPH.QSEVLINT" Value="-P2W"/>
    </ItemGroupData>
    <ItemGroupData ItemGroupOID="IG.QSPH" data:ItemGroupDataSeq="11">
      <ItemData ItemOID="IT.QSPH.STUDYID" Value="CDISCPILOT01"/>
      <ItemData ItemOID="IT.QSPH.DOMAIN" Value="QS"/>
      <ItemData ItemOID="IT.QSPH.USUBJID" Value="CDISC001"/>
      <ItemData ItemOID="IT.QSPH.QSSEQ" Value="11"/>
      <ItemData ItemOID="IT.QSPH.QSTESTCD" Value="PHQ0111"/>
      <ItemData ItemOID="IT.QSPH.QSTEST" Value="PHQ01-Total Score"/>
      <ItemData ItemOID="IT.QSPH.QSCAT" Value="PHQ-9"/>
      <ItemData ItemOID="IT.QSPH.QSORRES" Value="5"/>
      <ItemData ItemOID="IT.QSPH.QSSTRESC" Value="5"/>
      <ItemData ItemOID="IT.QSPH.QSSTRESN" Value="5"/>
      <ItemData ItemOID="IT.QSPH.QSLOBXFL" Value="Y"/>
      <ItemData ItemOID="IT.QSPH.VISITNUM" Value="3"/>
      <ItemData ItemOID="IT.QSPH.VISIT" Value="BASELINE"/>
      <ItemData ItemOID="IT.QSPH.EPOCH" Value="SCREENING"/>
      <ItemData ItemOID="IT.QSPH.QSDTC" Value="2012-11-30"/>
      <ItemData ItemOID="IT.QSPH.QSDY" Value="1"/>
      <ItemData ItemOID="IT.QSPH.QSEVLINT" Value="-P2W"/>
    </ItemGroupData>
    <ItemGroupData ItemGroupOID="IG.QSPH" data:ItemGroupDataSeq="12">
      <ItemData ItemOID="IT.QSPH.STUDYID" Value="CDISCPILOT01"/>
      <ItemData ItemOID="IT.QSPH.DOMAIN" Value="QS"/>
      <ItemData ItemOID="IT.QSPH.USUBJID" Value="CDISC001"/>
      <ItemData ItemOID="IT.QSPH.QSSEQ" Value="17"/>
      <ItemData ItemOID="IT.QSPH.QSTESTCD" Value="PHQ0101"/>
      <ItemData ItemOID="IT.QSPH.QSTEST" Value="PHQ01-Little Interest/Pleasure in Things"/>
      <ItemData ItemOID="IT.QSPH.QSCAT" Value="PHQ-9"/>
      <ItemData ItemOID="IT.QSPH.QSORRES" Value="Not at all"/>
      <ItemData ItemOID="IT.QSPH.QSSTRESC" Value="0"/>
      <ItemData ItemOID="IT.QSPH.QSSTRESN" Value="0"/>
      <ItemData ItemOID="IT.QSPH.VISITNUM" Value="201"/>
      <ItemData ItemOID="IT.QSPH.VISIT" Value="EARLY DISCONTINUATION RETRIEVAL"/>
      <ItemData ItemOID="IT.QSPH.EPOCH" Value="TREATMENT"/>
      <ItemData ItemOID="IT.QSPH.QSDTC" Value="2013-05-20"/>
      <ItemData ItemOID="IT.QSPH.QSDY" Value="172"/>
      <ItemData ItemOID="IT.QSPH.QSEVLINT" Value="-P2W"/>
    </ItemGroupData>
    <ItemGroupData ItemGroupOID="IG.QSPH" data:ItemGroupDataSeq="13">
      <ItemData ItemOID="IT.QSPH.STUDYID" Value="CDISCPILOT01"/>
      <ItemData ItemOID="IT.QSPH.DOMAIN" Value="QS"/>
      <ItemData ItemOID="IT.QSPH.USUBJID" Value="CDISC001"/>
      <ItemData ItemOID="IT.QSPH.QSSEQ" Value="18"/>
      <ItemData ItemOID="IT.QSPH.QSTESTCD" Value="PHQ0102"/>
      <ItemData ItemOID="IT.QSPH.QSTEST" Value="PHQ01-Feeling Down Depressed or Hopeless"/>
      <ItemData ItemOID="IT.QSPH.QSCAT" Value="PHQ-9"/>
      <ItemData ItemOID="IT.QSPH.QSORRES" Value="Not at all"/>
      <ItemData ItemOID="IT.QSPH.QSSTRESC" Value="0"/>
      <ItemData ItemOID="IT.QSPH.QSSTRESN" Value="0"/>
      <ItemData ItemOID="IT.QSPH.VISITNUM" Value="201"/>
      <ItemData ItemOID="IT.QSPH.VISIT" Value="EARLY DISCONTINUATION RETRIEVAL"/>
      <ItemData ItemOID="IT.QSPH.EPOCH" Value="TREATMENT"/>
      <ItemData ItemOID="IT.QSPH.QSDTC" Value="2013-05-20"/>
      <ItemData ItemOID="IT.QSPH.QSDY" Value="172"/>
      <ItemData ItemOID="IT.QSPH.QSEVLINT" Value="-P2W"/>
    </ItemGroupData>
    <ItemGroupData ItemGroupOID="IG.QSPH" data:ItemGroupDataSeq="14">
      <ItemData ItemOID="IT.QSPH.STUDYID" Value="CDISCPILOT01"/>
      <ItemData ItemOID="IT.QSPH.DOMAIN" Value="QS"/>
      <ItemData ItemOID="IT.QSPH.USUBJID" Value="CDISC001"/>
      <ItemData ItemOID="IT.QSPH.QSSEQ" Value="19"/>
      <ItemData ItemOID="IT.QSPH.QSTESTCD" Value="PHQ0103"/>
      <ItemData ItemOID="IT.QSPH.QSTEST" Value="PHQ01-Trouble Falling or Staying Asleep"/>
      <ItemData ItemOID="IT.QSPH.QSCAT" Value="PHQ-9"/>
      <ItemData ItemOID="IT.QSPH.QSORRES" Value="Several days"/>
      <ItemData ItemOID="IT.QSPH.QSSTRESC" Value="1"/>
      <ItemData ItemOID="IT.QSPH.QSSTRESN" Value="1"/>
      <ItemData ItemOID="IT.QSPH.VISITNUM" Value="201"/>
      <ItemData ItemOID="IT.QSPH.VISIT" Value="EARLY DISCONTINUATION RETRIEVAL"/>
      <ItemData ItemOID="IT.QSPH.EPOCH" Value="TREATMENT"/>
      <ItemData ItemOID="IT.QSPH.QSDTC" Value="2013-05-20"/>
      <ItemData ItemOID="IT.QSPH.QSDY" Value="172"/>
      <ItemData ItemOID="IT.QSPH.QSEVLINT" Value="-P2W"/>
    </ItemGroupData>
    <ItemGroupData ItemGroupOID="IG.QSPH" data:ItemGroupDataSeq="15">
      <ItemData ItemOID="IT.QSPH.STUDYID" Value="CDISCPILOT01"/>
      <ItemData ItemOID="IT.QSPH.DOMAIN" Value="QS"/>
      <ItemData ItemOID="IT.QSPH.USUBJID" Value="CDISC001"/>
      <ItemData ItemOID="IT.QSPH.QSSEQ" Value="20"/>
      <ItemData ItemOID="IT.QSPH.QSTESTCD" Value="PHQ0104"/>
      <ItemData ItemOID="IT.QSPH.QSTEST" Value="PHQ01-Feeling Tired or Little Energy"/>
      <ItemData ItemOID="IT.QSPH.QSCAT" Value="PHQ-9"/>
      <ItemData ItemOID="IT.QSPH.QSORRES" Value="Several days"/>
      <ItemData ItemOID="IT.QSPH.QSSTRESC" Value="1"/>
      <ItemData ItemOID="IT.QSPH.QSSTRESN" Value="1"/>
      <ItemData ItemOID="IT.QSPH.VISITNUM" Value="201"/>
      <ItemData ItemOID="IT.QSPH.VISIT" Value="EARLY DISCONTINUATION RETRIEVAL"/>
      <ItemData ItemOID="IT.QSPH.EPOCH" Value="TREATMENT"/>
      <ItemData ItemOID="IT.QSPH.QSDTC" Value="2013-05-20"/>
      <ItemData ItemOID="IT.QSPH.QSDY" Value="172"/>
      <ItemData ItemOID="IT.QSPH.QSEVLINT" Value="-P2W"/>
    </ItemGroupData>
    <ItemGroupData ItemGroupOID="IG.QSPH" data:ItemGroupDataSeq="16">
      <ItemData ItemOID="IT.QSPH.STUDYID" Value="CDISCPILOT01"/>
      <ItemData ItemOID="IT.QSPH.DOMAIN" Value="QS"/>
      <ItemData ItemOID="IT.QSPH.USUBJID" Value="CDISC001"/>
      <ItemData ItemOID="IT.QSPH.QSSEQ" Value="21"/>
      <ItemData ItemOID="IT.QSPH.QSTESTCD" Value="PHQ0105"/>
      <ItemData ItemOID="IT.QSPH.QSTEST" Value="PHQ01-Poor Appetite or Overeating"/>
      <ItemData ItemOID="IT.QSPH.QSCAT" Value="PHQ-9"/>
      <ItemData ItemOID="IT.QSPH.QSORRES" Value="Not at all"/>
      <ItemData ItemOID="IT.QSPH.QSSTRESC" Value="0"/>
      <ItemData ItemOID="IT.QSPH.QSSTRESN" Value="0"/>
      <ItemData ItemOID="IT.QSPH.VISITNUM" Value="201"/>
      <ItemData ItemOID="IT.QSPH.VISIT" Value="EARLY DISCONTINUATION RETRIEVAL"/>
      <ItemData ItemOID="IT.QSPH.EPOCH" Value="TREATMENT"/>
      <ItemData ItemOID="IT.QSPH.QSDTC" Value="2013-05-20"/>
      <ItemData ItemOID="IT.QSPH.QSDY" Value="172"/>
      <ItemData ItemOID="IT.QSPH.QSEVLINT" Value="-P2W"/>
    </ItemGroupData>
    <ItemGroupData ItemGroupOID="IG.QSPH" data:ItemGroupDataSeq="17">
      <ItemData ItemOID="IT.QSPH.STUDYID" Value="CDISCPILOT01"/>
      <ItemData ItemOID="IT.QSPH.DOMAIN" Value="QS"/>
      <ItemData ItemOID="IT.QSPH.USUBJID" Value="CDISC001"/>
      <ItemData ItemOID="IT.QSPH.QSSEQ" Value="22"/>
      <ItemData ItemOID="IT.QSPH.QSTESTCD" Value="PHQ0106"/>
      <ItemData ItemOID="IT.QSPH.QSTEST" Value="PHQ01-Feeling Bad About Yourself"/>
      <ItemData ItemOID="IT.QSPH.QSCAT" Value="PHQ-9"/>
      <ItemData ItemOID="IT.QSPH.QSORRES" Value="Several days"/>
      <ItemData ItemOID="IT.QSPH.QSSTRESC" Value="1"/>
      <ItemData ItemOID="IT.QSPH.QSSTRESN" Value="1"/>
      <ItemData ItemOID="IT.QSPH.VISITNUM" Value="201"/>
      <ItemData ItemOID="IT.QSPH.VISIT" Value="EARLY DISCONTINUATION RETRIEVAL"/>
      <ItemData ItemOID="IT.QSPH.EPOCH" Value="TREATMENT"/>
      <ItemData ItemOID="IT.QSPH.QSDTC" Value="2013-05-20"/>
      <ItemData ItemOID="IT.QSPH.QSDY" Value="172"/>
      <ItemData ItemOID="IT.QSPH.QSEVLINT" Value="-P2W"/>
    </ItemGroupData>
    <ItemGroupData ItemGroupOID="IG.QSPH" data:ItemGroupDataSeq="18">
      <ItemData ItemOID="IT.QSPH.STUDYID" Value="CDISCPILOT01"/>
      <ItemData ItemOID="IT.QSPH.DOMAIN" Value="QS"/>
      <ItemData ItemOID="IT.QSPH.USUBJID" Value="CDISC001"/>
      <ItemData ItemOID="IT.QSPH.QSSEQ" Value="23"/>
      <ItemData ItemOID="IT.QSPH.QSTESTCD" Value="PHQ0107"/>
      <ItemData ItemOID="IT.QSPH.QSTEST" Value="PHQ01-Trouble Concentrating on Things"/>
      <ItemData ItemOID="IT.QSPH.QSCAT" Value="PHQ-9"/>
      <ItemData ItemOID="IT.QSPH.QSORRES" Value="More than half the days"/>
      <ItemData ItemOID="IT.QSPH.QSSTRESC" Value="2"/>
      <ItemData ItemOID="IT.QSPH.QSSTRESN" Value="2"/>
      <ItemData ItemOID="IT.QSPH.VISITNUM" Value="201"/>
      <ItemData ItemOID="IT.QSPH.VISIT" Value="EARLY DISCONTINUATION RETRIEVAL"/>
      <ItemData ItemOID="IT.QSPH.EPOCH" Value="TREATMENT"/>
      <ItemData ItemOID="IT.QSPH.QSDTC" Value="2013-05-20"/>
      <ItemData ItemOID="IT.QSPH.QSDY" Value="172"/>
      <ItemData ItemOID="IT.QSPH.QSEVLINT" Value="-P2W"/>
    </ItemGroupData>
    <ItemGroupData ItemGroupOID="IG.QSPH" data:ItemGroupDataSeq="19">
      <ItemData ItemOID="IT.QSPH.STUDYID" Value="CDISCPILOT01"/>
      <ItemData ItemOID="IT.QSPH.DOMAIN" Value="QS"/>
      <ItemData ItemOID="IT.QSPH.USUBJID" Value="CDISC001"/>
      <ItemData ItemOID="IT.QSPH.QSSEQ" Value="24"/>
      <ItemData ItemOID="IT.QSPH.QSTESTCD" Value="PHQ0108"/>
      <ItemData ItemOID="IT.QSPH.QSTEST" Value="PHQ01-Moving Slowly or Fidgety/Restless"/>
      <ItemData ItemOID="IT.QSPH.QSCAT" Value="PHQ-9"/>
      <ItemData ItemOID="IT.QSPH.QSORRES" Value="Not at all"/>
      <ItemData ItemOID="IT.QSPH.QSSTRESC" Value="0"/>
      <ItemData ItemOID="IT.QSPH.QSSTRESN" Value="0"/>
      <ItemData ItemOID="IT.QSPH.VISITNUM" Value="201"/>
      <ItemData ItemOID="IT.QSPH.VISIT" Value="EARLY DISCONTINUATION RETRIEVAL"/>
      <ItemData ItemOID="IT.QSPH.EPOCH" Value="TREATMENT"/>
      <ItemData ItemOID="IT.QSPH.QSDTC" Value="2013-05-20"/>
      <ItemData ItemOID="IT.QSPH.QSDY" Value="172"/>
      <ItemData ItemOID="IT.QSPH.QSEVLINT" Value="-P2W"/>
    </ItemGroupData>
    <ItemGroupData ItemGroupOID="IG.QSPH" data:ItemGroupDataSeq="20">
      <ItemData ItemOID="IT.QSPH.STUDYID" Value="CDISCPILOT01"/>
      <ItemData ItemOID="IT.QSPH.DOMAIN" Value="QS"/>
      <ItemData ItemOID="IT.QSPH.USUBJID" Value="CDISC001"/>
      <ItemData ItemOID="IT.QSPH.QSSEQ" Value="25"/>
      <ItemData ItemOID="IT.QSPH.QSTESTCD" Value="PHQ0109"/>
      <ItemData ItemOID="IT.QSPH.QSTEST" Value="PHQ01-Thoughts You Be Better Off Dead"/>
      <ItemData ItemOID="IT.QSPH.QSCAT" Value="PHQ-9"/>
      <ItemData ItemOID="IT.QSPH.QSORRES" Value="Not at all"/>
      <ItemData ItemOID="IT.QSPH.QSSTRESC" Value="0"/>
      <ItemData ItemOID="IT.QSPH.QSSTRESN" Value="0"/>
      <ItemData ItemOID="IT.QSPH.VISITNUM" Value="201"/>
      <ItemData ItemOID="IT.QSPH.VISIT" Value="EARLY DISCONTINUATION RETRIEVAL"/>
      <ItemData ItemOID="IT.QSPH.EPOCH" Value="TREATMENT"/>
      <ItemData ItemOID="IT.QSPH.QSDTC" Value="2013-05-20"/>
      <ItemData ItemOID="IT.QSPH.QSDY" Value="172"/>
      <ItemData ItemOID="IT.QSPH.QSEVLINT" Value="-P2W"/>
    </ItemGroupData>
    <ItemGroupData ItemGroupOID="IG.QSPH" data:ItemGroupDataSeq="21">
      <ItemData ItemOID="IT.QSPH.STUDYID" Value="CDISCPILOT01"/>
      <ItemData ItemOID="IT.QSPH.DOMAIN" Value="QS"/>
      <ItemData ItemOID="IT.QSPH.USUBJID" Value="CDISC001"/>
      <ItemData ItemOID="IT.QSPH.QSSEQ" Value="26"/>
      <ItemData ItemOID="IT.QSPH.QSTESTCD" Value="PHQ0110"/>
      <ItemData ItemOID="IT.QSPH.QSTEST" Value="PHQ01-Difficult to Work/Take Care Things"/>
      <ItemData ItemOID="IT.QSPH.QSCAT" Value="PHQ-9"/>
      <ItemData ItemOID="IT.QSPH.QSORRES" Value="Not difficult at all"/>
      <ItemData ItemOID="IT.QSPH.QSSTRESC" Value="Not difficult at all"/>
      <ItemData ItemOID="IT.QSPH.VISITNUM" Value="201"/>
      <ItemData ItemOID="IT.QSPH.VISIT" Value="EARLY DISCONTINUATION RETRIEVAL"/>
      <ItemData ItemOID="IT.QSPH.EPOCH" Value="TREATMENT"/>
      <ItemData ItemOID="IT.QSPH.QSDTC" Value="2013-05-20"/>
      <ItemData ItemOID="IT.QSPH.QSDY" Value="172"/>
      <ItemData ItemOID="IT.QSPH.QSEVLINT" Value="-P2W"/>
    </ItemGroupData>
    <ItemGroupData ItemGroupOID="IG.QSPH" data:ItemGroupDataSeq="22">
      <ItemData ItemOID="IT.QSPH.STUDYID" Value="CDISCPILOT01"/>
      <ItemData ItemOID="IT.QSPH.DOMAIN" Value="QS"/>
      <ItemData ItemOID="IT.QSPH.USUBJID" Value="CDISC001"/>
      <ItemData ItemOID="IT.QSPH.QSSEQ" Value="27"/>
      <ItemData ItemOID="IT.QSPH.QSTESTCD" Value="PHQ0111"/>
      <ItemData ItemOID="IT.QSPH.QSTEST" Value="PHQ01-Total Score"/>
      <ItemData ItemOID="IT.QSPH.QSCAT" Value="PHQ-9"/>
      <ItemData ItemOID="IT.QSPH.QSORRES" Value="5"/>
      <ItemData ItemOID="IT.QSPH.QSSTRESC" Value="5"/>
      <ItemData ItemOID="IT.QSPH.QSSTRESN" Value="5"/>
      <ItemData ItemOID="IT.QSPH.VISITNUM" Value="201"/>
      <ItemData ItemOID="IT.QSPH.VISIT" Value="EARLY DISCONTINUATION RETRIEVAL"/>
      <ItemData ItemOID="IT.QSPH.EPOCH" Value="TREATMENT"/>
      <ItemData ItemOID="IT.QSPH.QSDTC" Value="2013-05-20"/>
      <ItemData ItemOID="IT.QSPH.QSDY" Value="172"/>
      <ItemData ItemOID="IT.QSPH.QSEVLINT" Value="-P2W"/>
    </ItemGroupData>
    <ItemGroupData ItemGroupOID="IG.QSPH" data:ItemGroupDataSeq="23">
      <ItemData ItemOID="IT.QSPH.STUDYID" Value="CDISCPILOT01"/>
      <ItemData ItemOID="IT.QSPH.DOMAIN" Value="QS"/>
      <ItemData ItemOID="IT.QSPH.USUBJID" Value="CDISC002"/>
      <ItemData ItemOID="IT.QSPH.QSSEQ" Value="1"/>
      <ItemData ItemOID="IT.QSPH.QSTESTCD" Value="PHQ0101"/>
      <ItemData ItemOID="IT.QSPH.QSTEST" Value="PHQ01-Little Interest/Pleasure in Things"/>
      <ItemData ItemOID="IT.QSPH.QSCAT" Value="PHQ-9"/>
      <ItemData ItemOID="IT.QSPH.QSORRES" Value="More than half the days"/>
      <ItemData ItemOID="IT.QSPH.QSSTRESC" Value="2"/>
      <ItemData ItemOID="IT.QSPH.QSSTRESN" Value="2"/>
      <ItemData ItemOID="IT.QSPH.QSLOBXFL" Value="Y"/>
      <ItemData ItemOID="IT.QSPH.VISITNUM" Value="3"/>
      <ItemData ItemOID="IT.QSPH.VISIT" Value="BASELINE"/>
      <ItemData ItemOID="IT.QSPH.EPOCH" Value="SCREENING"/>
      <ItemData ItemOID="IT.QSPH.QSDTC" Value="2012-11-15"/>
      <ItemData ItemOID="IT.QSPH.QSDY" Value="1"/>
      <ItemData ItemOID="IT.QSPH.QSEVLINT" Value="-P2W"/>
    </ItemGroupData>
    <ItemGroupData ItemGroupOID="IG.QSPH" data:ItemGroupDataSeq="24">
      <ItemData ItemOID="IT.QSPH.STUDYID" Value="CDISCPILOT01"/>
      <ItemData ItemOID="IT.QSPH.DOMAIN" Value="QS"/>
      <ItemData ItemOID="IT.QSPH.USUBJID" Value="CDISC002"/>
      <ItemData ItemOID="IT.QSPH.QSSEQ" Value="2"/>
      <ItemData ItemOID="IT.QSPH.QSTESTCD" Value="PHQ0102"/>
      <ItemData ItemOID="IT.QSPH.QSTEST" Value="PHQ01-Feeling Down Depressed or Hopeless"/>
      <ItemData ItemOID="IT.QSPH.QSCAT" Value="PHQ-9"/>
      <ItemData ItemOID="IT.QSPH.QSORRES" Value="More than half the days"/>
      <ItemData ItemOID="IT.QSPH.QSSTRESC" Value="2"/>
      <ItemData ItemOID="IT.QSPH.QSSTRESN" Value="2"/>
      <ItemData ItemOID="IT.QSPH.QSLOBXFL" Value="Y"/>
      <ItemData ItemOID="IT.QSPH.VISITNUM" Value="3"/>
      <ItemData ItemOID="IT.QSPH.VISIT" Value="BASELINE"/>
      <ItemData ItemOID="IT.QSPH.EPOCH" Value="SCREENING"/>
      <ItemData ItemOID="IT.QSPH.QSDTC" Value="2012-11-15"/>
      <ItemData ItemOID="IT.QSPH.QSDY" Value="1"/>
      <ItemData ItemOID="IT.QSPH.QSEVLINT" Value="-P2W"/>
    </ItemGroupData>
    <ItemGroupData ItemGroupOID="IG.QSPH" data:ItemGroupDataSeq="25">
      <ItemData ItemOID="IT.QSPH.STUDYID" Value="CDISCPILOT01"/>
      <ItemData ItemOID="IT.QSPH.DOMAIN" Value="QS"/>
      <ItemData ItemOID="IT.QSPH.USUBJID" Value="CDISC002"/>
      <ItemData ItemOID="IT.QSPH.QSSEQ" Value="3"/>
      <ItemData ItemOID="IT.QSPH.QSTESTCD" Value="PHQ0103"/>
      <ItemData ItemOID="IT.QSPH.QSTEST" Value="PHQ01-Trouble Falling or Staying Asleep"/>
      <ItemData ItemOID="IT.QSPH.QSCAT" Value="PHQ-9"/>
      <ItemData ItemOID="IT.QSPH.QSORRES" Value="More than half the days"/>
      <ItemData ItemOID="IT.QSPH.QSSTRESC" Value="2"/>
      <ItemData ItemOID="IT.QSPH.QSSTRESN" Value="2"/>
      <ItemData ItemOID="IT.QSPH.QSLOBXFL" Value="Y"/>
      <ItemData ItemOID="IT.QSPH.VISITNUM" Value="3"/>
      <ItemData ItemOID="IT.QSPH.VISIT" Value="BASELINE"/>
      <ItemData ItemOID="IT.QSPH.EPOCH" Value="SCREENING"/>
      <ItemData ItemOID="IT.QSPH.QSDTC" Value="2012-11-15"/>
      <ItemData ItemOID="IT.QSPH.QSDY" Value="1"/>
      <ItemData ItemOID="IT.QSPH.QSEVLINT" Value="-P2W"/>
    </ItemGroupData>
    <ItemGroupData ItemGroupOID="IG.QSPH" data:ItemGroupDataSeq="26">
      <ItemData ItemOID="IT.QSPH.STUDYID" Value="CDISCPILOT01"/>
      <ItemData ItemOID="IT.QSPH.DOMAIN" Value="QS"/>
      <ItemData ItemOID="IT.QSPH.USUBJID" Value="CDISC002"/>
      <ItemData ItemOID="IT.QSPH.QSSEQ" Value="4"/>
      <ItemData ItemOID="IT.QSPH.QSTESTCD" Value="PHQ0104"/>
      <ItemData ItemOID="IT.QSPH.QSTEST" Value="PHQ01-Feeling Tired or Little Energy"/>
      <ItemData ItemOID="IT.QSPH.QSCAT" Value="PHQ-9"/>
      <ItemData ItemOID="IT.QSPH.QSORRES" Value="More than half the days"/>
      <ItemData ItemOID="IT.QSPH.QSSTRESC" Value="2"/>
      <ItemData ItemOID="IT.QSPH.QSSTRESN" Value="2"/>
      <ItemData ItemOID="IT.QSPH.QSLOBXFL" Value="Y"/>
      <ItemData ItemOID="IT.QSPH.VISITNUM" Value="3"/>
      <ItemData ItemOID="IT.QSPH.VISIT" Value="BASELINE"/>
      <ItemData ItemOID="IT.QSPH.EPOCH" Value="SCREENING"/>
      <ItemData ItemOID="IT.QSPH.QSDTC" Value="2012-11-15"/>
      <ItemData ItemOID="IT.QSPH.QSDY" Value="1"/>
      <ItemData ItemOID="IT.QSPH.QSEVLINT" Value="-P2W"/>
    </ItemGroupData>
    <ItemGroupData ItemGroupOID="IG.QSPH" data:ItemGroupDataSeq="27">
      <ItemData ItemOID="IT.QSPH.STUDYID" Value="CDISCPILOT01"/>
      <ItemData ItemOID="IT.QSPH.DOMAIN" Value="QS"/>
      <ItemData ItemOID="IT.QSPH.USUBJID" Value="CDISC002"/>
      <ItemData ItemOID="IT.QSPH.QSSEQ" Value="5"/>
      <ItemData ItemOID="IT.QSPH.QSTESTCD" Value="PHQ0105"/>
      <ItemData ItemOID="IT.QSPH.QSTEST" Value="PHQ01-Poor Appetite or Overeating"/>
      <ItemData ItemOID="IT.QSPH.QSCAT" Value="PHQ-9"/>
      <ItemData ItemOID="IT.QSPH.QSORRES" Value="More than half the days"/>
      <ItemData ItemOID="IT.QSPH.QSSTRESC" Value="2"/>
      <ItemData ItemOID="IT.QSPH.QSSTRESN" Value="2"/>
      <ItemData ItemOID="IT.QSPH.QSLOBXFL" Value="Y"/>
      <ItemData ItemOID="IT.QSPH.VISITNUM" Value="3"/>
      <ItemData ItemOID="IT.QSPH.VISIT" Value="BASELINE"/>
      <ItemData ItemOID="IT.QSPH.EPOCH" Value="SCREENING"/>
      <ItemData ItemOID="IT.QSPH.QSDTC" Value="2012-11-15"/>
      <ItemData ItemOID="IT.QSPH.QSDY" Value="1"/>
      <ItemData ItemOID="IT.QSPH.QSEVLINT" Value="-P2W"/>
    </ItemGroupData>
    <ItemGroupData ItemGroupOID="IG.QSPH" data:ItemGroupDataSeq="28">
      <ItemData ItemOID="IT.QSPH.STUDYID" Value="CDISCPILOT01"/>
      <ItemData ItemOID="IT.QSPH.DOMAIN" Value="QS"/>
      <ItemData ItemOID="IT.QSPH.USUBJID" Value="CDISC002"/>
      <ItemData ItemOID="IT.QSPH.QSSEQ" Value="6"/>
      <ItemData ItemOID="IT.QSPH.QSTESTCD" Value="PHQ0106"/>
      <ItemData ItemOID="IT.QSPH.QSTEST" Value="PHQ01-Feeling Bad About Yourself"/>
      <ItemData ItemOID="IT.QSPH.QSCAT" Value="PHQ-9"/>
      <ItemData ItemOID="IT.QSPH.QSORRES" Value="Nearly every day"/>
      <ItemData ItemOID="IT.QSPH.QSSTRESC" Value="3"/>
      <ItemData ItemOID="IT.QSPH.QSSTRESN" Value="3"/>
      <ItemData ItemOID="IT.QSPH.QSLOBXFL" Value="Y"/>
      <ItemData ItemOID="IT.QSPH.VISITNUM" Value="3"/>
      <ItemData ItemOID="IT.QSPH.VISIT" Value="BASELINE"/>
      <ItemData ItemOID="IT.QSPH.EPOCH" Value="SCREENING"/>
      <ItemData ItemOID="IT.QSPH.QSDTC" Value="2012-11-15"/>
      <ItemData ItemOID="IT.QSPH.QSDY" Value="1"/>
      <ItemData ItemOID="IT.QSPH.QSEVLINT" Value="-P2W"/>
    </ItemGroupData>
    <ItemGroupData ItemGroupOID="IG.QSPH" data:ItemGroupDataSeq="29">
      <ItemData ItemOID="IT.QSPH.STUDYID" Value="CDISCPILOT01"/>
      <ItemData ItemOID="IT.QSPH.DOMAIN" Value="QS"/>
      <ItemData ItemOID="IT.QSPH.USUBJID" Value="CDISC002"/>
      <ItemData ItemOID="IT.QSPH.QSSEQ" Value="7"/>
      <ItemData ItemOID="IT.QSPH.QSTESTCD" Value="PHQ0107"/>
      <ItemData ItemOID="IT.QSPH.QSTEST" Value="PHQ01-Trouble Concentrating on Things"/>
      <ItemData ItemOID="IT.QSPH.QSCAT" Value="PHQ-9"/>
      <ItemData ItemOID="IT.QSPH.QSORRES" Value="More than half the days"/>
      <ItemData ItemOID="IT.QSPH.QSSTRESC" Value="2"/>
      <ItemData ItemOID="IT.QSPH.QSSTRESN" Value="2"/>
      <ItemData ItemOID="IT.QSPH.QSLOBXFL" Value="Y"/>
      <ItemData ItemOID="IT.QSPH.VISITNUM" Value="3"/>
      <ItemData ItemOID="IT.QSPH.VISIT" Value="BASELINE"/>
      <ItemData ItemOID="IT.QSPH.EPOCH" Value="SCREENING"/>
      <ItemData ItemOID="IT.QSPH.QSDTC" Value="2012-11-15"/>
      <ItemData ItemOID="IT.QSPH.QSDY" Value="1"/>
      <ItemData ItemOID="IT.QSPH.QSEVLINT" Value="-P2W"/>
    </ItemGroupData>
    <ItemGroupData ItemGroupOID="IG.QSPH" data:ItemGroupDataSeq="30">
      <ItemData ItemOID="IT.QSPH.STUDYID" Value="CDISCPILOT01"/>
      <ItemData ItemOID="IT.QSPH.DOMAIN" Value="QS"/>
      <ItemData ItemOID="IT.QSPH.USUBJID" Value="CDISC002"/>
      <ItemData ItemOID="IT.QSPH.QSSEQ" Value="8"/>
      <ItemData ItemOID="IT.QSPH.QSTESTCD" Value="PHQ0108"/>
      <ItemData ItemOID="IT.QSPH.QSTEST" Value="PHQ01-Moving Slowly or Fidgety/Restless"/>
      <ItemData ItemOID="IT.QSPH.QSCAT" Value="PHQ-9"/>
      <ItemData ItemOID="IT.QSPH.QSORRES" Value="Nearly every day"/>
      <ItemData ItemOID="IT.QSPH.QSSTRESC" Value="3"/>
      <ItemData ItemOID="IT.QSPH.QSSTRESN" Value="3"/>
      <ItemData ItemOID="IT.QSPH.QSLOBXFL" Value="Y"/>
      <ItemData ItemOID="IT.QSPH.VISITNUM" Value="3"/>
      <ItemData ItemOID="IT.QSPH.VISIT" Value="BASELINE"/>
      <ItemData ItemOID="IT.QSPH.EPOCH" Value="SCREENING"/>
      <ItemData ItemOID="IT.QSPH.QSDTC" Value="2012-11-15"/>
      <ItemData ItemOID="IT.QSPH.QSDY" Value="1"/>
      <ItemData ItemOID="IT.QSPH.QSEVLINT" Value="-P2W"/>
    </ItemGroupData>
    <ItemGroupData ItemGroupOID="IG.QSPH" data:ItemGroupDataSeq="31">
      <ItemData ItemOID="IT.QSPH.STUDYID" Value="CDISCPILOT01"/>
      <ItemData ItemOID="IT.QSPH.DOMAIN" Value="QS"/>
      <ItemData ItemOID="IT.QSPH.USUBJID" Value="CDISC002"/>
      <ItemData ItemOID="IT.QSPH.QSSEQ" Value="9"/>
      <ItemData ItemOID="IT.QSPH.QSTESTCD" Value="PHQ0109"/>
      <ItemData ItemOID="IT.QSPH.QSTEST" Value="PHQ01-Thoughts You Be Better Off Dead"/>
      <ItemData ItemOID="IT.QSPH.QSCAT" Value="PHQ-9"/>
      <ItemData ItemOID="IT.QSPH.QSORRES" Value="Nearly every day"/>
      <ItemData ItemOID="IT.QSPH.QSSTRESC" Value="3"/>
      <ItemData ItemOID="IT.QSPH.QSSTRESN" Value="3"/>
      <ItemData ItemOID="IT.QSPH.QSLOBXFL" Value="Y"/>
      <ItemData ItemOID="IT.QSPH.VISITNUM" Value="3"/>
      <ItemData ItemOID="IT.QSPH.VISIT" Value="BASELINE"/>
      <ItemData ItemOID="IT.QSPH.EPOCH" Value="SCREENING"/>
      <ItemData ItemOID="IT.QSPH.QSDTC" Value="2012-11-15"/>
      <ItemData ItemOID="IT.QSPH.QSDY" Value="1"/>
      <ItemData ItemOID="IT.QSPH.QSEVLINT" Value="-P2W"/>
    </ItemGroupData>
    <ItemGroupData ItemGroupOID="IG.QSPH" data:ItemGroupDataSeq="32">
      <ItemData ItemOID="IT.QSPH.STUDYID" Value="CDISCPILOT01"/>
      <ItemData ItemOID="IT.QSPH.DOMAIN" Value="QS"/>
      <ItemData ItemOID="IT.QSPH.USUBJID" Value="CDISC002"/>
      <ItemData ItemOID="IT.QSPH.QSSEQ" Value="10"/>
      <ItemData ItemOID="IT.QSPH.QSTESTCD" Value="PHQ0110"/>
      <ItemData ItemOID="IT.QSPH.QSTEST" Value="PHQ01-Difficult to Work/Take Care Things"/>
      <ItemData ItemOID="IT.QSPH.QSCAT" Value="PHQ-9"/>
      <ItemData ItemOID="IT.QSPH.QSORRES" Value="Somewhat difficult"/>
      <ItemData ItemOID="IT.QSPH.QSSTRESC" Value="Somewhat difficult"/>
      <ItemData ItemOID="IT.QSPH.QSLOBXFL" Value="Y"/>
      <ItemData ItemOID="IT.QSPH.VISITNUM" Value="3"/>
      <ItemData ItemOID="IT.QSPH.VISIT" Value="BASELINE"/>
      <ItemData ItemOID="IT.QSPH.EPOCH" Value="SCREENING"/>
      <ItemData ItemOID="IT.QSPH.QSDTC" Value="2012-11-15"/>
      <ItemData ItemOID="IT.QSPH.QSDY" Value="1"/>
      <ItemData ItemOID="IT.QSPH.QSEVLINT" Value="-P2W"/>
    </ItemGroupData>
    <ItemGroupData ItemGroupOID="IG.QSPH" data:ItemGroupDataSeq="33">
      <ItemData ItemOID="IT.QSPH.STUDYID" Value="CDISCPILOT01"/>
      <ItemData ItemOID="IT.QSPH.DOMAIN" Value="QS"/>
      <ItemData ItemOID="IT.QSPH.USUBJID" Value="CDISC002"/>
      <ItemData ItemOID="IT.QSPH.QSSEQ" Value="11"/>
      <ItemData ItemOID="IT.QSPH.QSTESTCD" Value="PHQ0111"/>
      <ItemData ItemOID="IT.QSPH.QSTEST" Value="PHQ01-Total Score"/>
      <ItemData ItemOID="IT.QSPH.QSCAT" Value="PHQ-9"/>
      <ItemData ItemOID="IT.QSPH.QSORRES" Value="21"/>
      <ItemData ItemOID="IT.QSPH.QSSTRESC" Value="21"/>
      <ItemData ItemOID="IT.QSPH.QSSTRESN" Value="21"/>
      <ItemData ItemOID="IT.QSPH.QSLOBXFL" Value="Y"/>
      <ItemData ItemOID="IT.QSPH.VISITNUM" Value="3"/>
      <ItemData ItemOID="IT.QSPH.VISIT" Value="BASELINE"/>
      <ItemData ItemOID="IT.QSPH.EPOCH" Value="SCREENING"/>
      <ItemData ItemOID="IT.QSPH.QSDTC" Value="2012-11-15"/>
      <ItemData ItemOID="IT.QSPH.QSDY" Value="1"/>
      <ItemData ItemOID="IT.QSPH.QSEVLINT" Value="-P2W"/>
    </ItemGroupData>
    <ItemGroupData ItemGroupOID="IG.QSPH" data:ItemGroupDataSeq="34">
      <ItemData ItemOID="IT.QSPH.STUDYID" Value="CDISCPILOT01"/>
      <ItemData ItemOID="IT.QSPH.DOMAIN" Value="QS"/>
      <ItemData ItemOID="IT.QSPH.USUBJID" Value="CDISC003"/>
      <ItemData ItemOID="IT.QSPH.QSSEQ" Value="1"/>
      <ItemData ItemOID="IT.QSPH.QSTESTCD" Value="PHQ0101"/>
      <ItemData ItemOID="IT.QSPH.QSTEST" Value="PHQ01-Little Interest/Pleasure in Things"/>
      <ItemData ItemOID="IT.QSPH.QSCAT" Value="PHQ-9"/>
      <ItemData ItemOID="IT.QSPH.QSORRES" Value="Not at all"/>
      <ItemData ItemOID="IT.QSPH.QSSTRESC" Value="0"/>
      <ItemData ItemOID="IT.QSPH.QSSTRESN" Value="0"/>
      <ItemData ItemOID="IT.QSPH.QSLOBXFL" Value="Y"/>
      <ItemData ItemOID="IT.QSPH.VISITNUM" Value="3"/>
      <ItemData ItemOID="IT.QSPH.VISIT" Value="BASELINE"/>
      <ItemData ItemOID="IT.QSPH.EPOCH" Value="SCREENING"/>
      <ItemData ItemOID="IT.QSPH.QSDTC" Value="2013-08-29"/>
      <ItemData ItemOID="IT.QSPH.QSDY" Value="1"/>
      <ItemData ItemOID="IT.QSPH.QSEVLINT" Value="-P2W"/>
    </ItemGroupData>
    <ItemGroupData ItemGroupOID="IG.QSPH" data:ItemGroupDataSeq="35">
      <ItemData ItemOID="IT.QSPH.STUDYID" Value="CDISCPILOT01"/>
      <ItemData ItemOID="IT.QSPH.DOMAIN" Value="QS"/>
      <ItemData ItemOID="IT.QSPH.USUBJID" Value="CDISC003"/>
      <ItemData ItemOID="IT.QSPH.QSSEQ" Value="2"/>
      <ItemData ItemOID="IT.QSPH.QSTESTCD" Value="PHQ0102"/>
      <ItemData ItemOID="IT.QSPH.QSTEST" Value="PHQ01-Feeling Down Depressed or Hopeless"/>
      <ItemData ItemOID="IT.QSPH.QSCAT" Value="PHQ-9"/>
      <ItemData ItemOID="IT.QSPH.QSORRES" Value="Not at all"/>
      <ItemData ItemOID="IT.QSPH.QSSTRESC" Value="0"/>
      <ItemData ItemOID="IT.QSPH.QSSTRESN" Value="0"/>
      <ItemData ItemOID="IT.QSPH.QSLOBXFL" Value="Y"/>
      <ItemData ItemOID="IT.QSPH.VISITNUM" Value="3"/>
      <ItemData ItemOID="IT.QSPH.VISIT" Value="BASELINE"/>
      <ItemData ItemOID="IT.QSPH.EPOCH" Value="SCREENING"/>
      <ItemData ItemOID="IT.QSPH.QSDTC" Value="2013-08-29"/>
      <ItemData ItemOID="IT.QSPH.QSDY" Value="1"/>
      <ItemData ItemOID="IT.QSPH.QSEVLINT" Value="-P2W"/>
    </ItemGroupData>
    <ItemGroupData ItemGroupOID="IG.QSPH" data:ItemGroupDataSeq="36">
      <ItemData ItemOID="IT.QSPH.STUDYID" Value="CDISCPILOT01"/>
      <ItemData ItemOID="IT.QSPH.DOMAIN" Value="QS"/>
      <ItemData ItemOID="IT.QSPH.USUBJID" Value="CDISC003"/>
      <ItemData ItemOID="IT.QSPH.QSSEQ" Value="3"/>
      <ItemData ItemOID="IT.QSPH.QSTESTCD" Value="PHQ0103"/>
      <ItemData ItemOID="IT.QSPH.QSTEST" Value="PHQ01-Trouble Falling or Staying Asleep"/>
      <ItemData ItemOID="IT.QSPH.QSCAT" Value="PHQ-9"/>
      <ItemData ItemOID="IT.QSPH.QSORRES" Value="Not at all"/>
      <ItemData ItemOID="IT.QSPH.QSSTRESC" Value="0"/>
      <ItemData ItemOID="IT.QSPH.QSSTRESN" Value="0"/>
      <ItemData ItemOID="IT.QSPH.QSLOBXFL" Value="Y"/>
      <ItemData ItemOID="IT.QSPH.VISITNUM" Value="3"/>
      <ItemData ItemOID="IT.QSPH.VISIT" Value="BASELINE"/>
      <ItemData ItemOID="IT.QSPH.EPOCH" Value="SCREENING"/>
      <ItemData ItemOID="IT.QSPH.QSDTC" Value="2013-08-29"/>
      <ItemData ItemOID="IT.QSPH.QSDY" Value="1"/>
      <ItemData ItemOID="IT.QSPH.QSEVLINT" Value="-P2W"/>
    </ItemGroupData>
    <ItemGroupData ItemGroupOID="IG.QSPH" data:ItemGroupDataSeq="37">
      <ItemData ItemOID="IT.QSPH.STUDYID" Value="CDISCPILOT01"/>
      <ItemData ItemOID="IT.QSPH.DOMAIN" Value="QS"/>
      <ItemData ItemOID="IT.QSPH.USUBJID" Value="CDISC003"/>
      <ItemData ItemOID="IT.QSPH.QSSEQ" Value="4"/>
      <ItemData ItemOID="IT.QSPH.QSTESTCD" Value="PHQ0104"/>
      <ItemData ItemOID="IT.QSPH.QSTEST" Value="PHQ01-Feeling Tired or Little Energy"/>
      <ItemData ItemOID="IT.QSPH.QSCAT" Value="PHQ-9"/>
      <ItemData ItemOID="IT.QSPH.QSORRES" Value="Not at all"/>
      <ItemData ItemOID="IT.QSPH.QSSTRESC" Value="0"/>
      <ItemData ItemOID="IT.QSPH.QSSTRESN" Value="0"/>
      <ItemData ItemOID="IT.QSPH.QSLOBXFL" Value="Y"/>
      <ItemData ItemOID="IT.QSPH.VISITNUM" Value="3"/>
      <ItemData ItemOID="IT.QSPH.VISIT" Value="BASELINE"/>
      <ItemData ItemOID="IT.QSPH.EPOCH" Value="SCREENING"/>
      <ItemData ItemOID="IT.QSPH.QSDTC" Value="2013-08-29"/>
      <ItemData ItemOID="IT.QSPH.QSDY" Value="1"/>
      <ItemData ItemOID="IT.QSPH.QSEVLINT" Value="-P2W"/>
    </ItemGroupData>
    <ItemGroupData ItemGroupOID="IG.QSPH" data:ItemGroupDataSeq="38">
      <ItemData ItemOID="IT.QSPH.STUDYID" Value="CDISCPILOT01"/>
      <ItemData ItemOID="IT.QSPH.DOMAIN" Value="QS"/>
      <ItemData ItemOID="IT.QSPH.USUBJID" Value="CDISC003"/>
      <ItemData ItemOID="IT.QSPH.QSSEQ" Value="5"/>
      <ItemData ItemOID="IT.QSPH.QSTESTCD" Value="PHQ0105"/>
      <ItemData ItemOID="IT.QSPH.QSTEST" Value="PHQ01-Poor Appetite or Overeating"/>
      <ItemData ItemOID="IT.QSPH.QSCAT" Value="PHQ-9"/>
      <ItemData ItemOID="IT.QSPH.QSORRES" Value="Not at all"/>
      <ItemData ItemOID="IT.QSPH.QSSTRESC" Value="0"/>
      <ItemData ItemOID="IT.QSPH.QSSTRESN" Value="0"/>
      <ItemData ItemOID="IT.QSPH.QSLOBXFL" Value="Y"/>
      <ItemData ItemOID="IT.QSPH.VISITNUM" Value="3"/>
      <ItemData ItemOID="IT.QSPH.VISIT" Value="BASELINE"/>
      <ItemData ItemOID="IT.QSPH.EPOCH" Value="SCREENING"/>
      <ItemData ItemOID="IT.QSPH.QSDTC" Value="2013-08-29"/>
      <ItemData ItemOID="IT.QSPH.QSDY" Value="1"/>
      <ItemData ItemOID="IT.QSPH.QSEVLINT" Value="-P2W"/>
    </ItemGroupData>
    <ItemGroupData ItemGroupOID="IG.QSPH" data:ItemGroupDataSeq="39">
      <ItemData ItemOID="IT.QSPH.STUDYID" Value="CDISCPILOT01"/>
      <ItemData ItemOID="IT.QSPH.DOMAIN" Value="QS"/>
      <ItemData ItemOID="IT.QSPH.USUBJID" Value="CDISC003"/>
      <ItemData ItemOID="IT.QSPH.QSSEQ" Value="6"/>
      <ItemData ItemOID="IT.QSPH.QSTESTCD" Value="PHQ0106"/>
      <ItemData ItemOID="IT.QSPH.QSTEST" Value="PHQ01-Feeling Bad About Yourself"/>
      <ItemData ItemOID="IT.QSPH.QSCAT" Value="PHQ-9"/>
      <ItemData ItemOID="IT.QSPH.QSORRES" Value="Not at all"/>
      <ItemData ItemOID="IT.QSPH.QSSTRESC" Value="0"/>
      <ItemData ItemOID="IT.QSPH.QSSTRESN" Value="0"/>
      <ItemData ItemOID="IT.QSPH.QSLOBXFL" Value="Y"/>
      <ItemData ItemOID="IT.QSPH.VISITNUM" Value="3"/>
      <ItemData ItemOID="IT.QSPH.VISIT" Value="BASELINE"/>
      <ItemData ItemOID="IT.QSPH.EPOCH" Value="SCREENING"/>
      <ItemData ItemOID="IT.QSPH.QSDTC" Value="2013-08-29"/>
      <ItemData ItemOID="IT.QSPH.QSDY" Value="1"/>
      <ItemData ItemOID="IT.QSPH.QSEVLINT" Value="-P2W"/>
    </ItemGroupData>
    <ItemGroupData ItemGroupOID="IG.QSPH" data:ItemGroupDataSeq="40">
      <ItemData ItemOID="IT.QSPH.STUDYID" Value="CDISCPILOT01"/>
      <ItemData ItemOID="IT.QSPH.DOMAIN" Value="QS"/>
      <ItemData ItemOID="IT.QSPH.USUBJID" Value="CDISC003"/>
      <ItemData ItemOID="IT.QSPH.QSSEQ" Value="7"/>
      <ItemData ItemOID="IT.QSPH.QSTESTCD" Value="PHQ0107"/>
      <ItemData ItemOID="IT.QSPH.QSTEST" Value="PHQ01-Trouble Concentrating on Things"/>
      <ItemData ItemOID="IT.QSPH.QSCAT" Value="PHQ-9"/>
      <ItemData ItemOID="IT.QSPH.QSORRES" Value="Several days"/>
      <ItemData ItemOID="IT.QSPH.QSSTRESC" Value="1"/>
      <ItemData ItemOID="IT.QSPH.QSSTRESN" Value="1"/>
      <ItemData ItemOID="IT.QSPH.QSLOBXFL" Value="Y"/>
      <ItemData ItemOID="IT.QSPH.VISITNUM" Value="3"/>
      <ItemData ItemOID="IT.QSPH.VISIT" Value="BASELINE"/>
      <ItemData ItemOID="IT.QSPH.EPOCH" Value="SCREENING"/>
      <ItemData ItemOID="IT.QSPH.QSDTC" Value="2013-08-29"/>
      <ItemData ItemOID="IT.QSPH.QSDY" Value="1"/>
      <ItemData ItemOID="IT.QSPH.QSEVLINT" Value="-P2W"/>
    </ItemGroupData>
    <ItemGroupData ItemGroupOID="IG.QSPH" data:ItemGroupDataSeq="41">
      <ItemData ItemOID="IT.QSPH.STUDYID" Value="CDISCPILOT01"/>
      <ItemData ItemOID="IT.QSPH.DOMAIN" Value="QS"/>
      <ItemData ItemOID="IT.QSPH.USUBJID" Value="CDISC003"/>
      <ItemData ItemOID="IT.QSPH.QSSEQ" Value="8"/>
      <ItemData ItemOID="IT.QSPH.QSTESTCD" Value="PHQ0108"/>
      <ItemData ItemOID="IT.QSPH.QSTEST" Value="PHQ01-Moving Slowly or Fidgety/Restless"/>
      <ItemData ItemOID="IT.QSPH.QSCAT" Value="PHQ-9"/>
      <ItemData ItemOID="IT.QSPH.QSORRES" Value="Not at all"/>
      <ItemData ItemOID="IT.QSPH.QSSTRESC" Value="0"/>
      <ItemData ItemOID="IT.QSPH.QSSTRESN" Value="0"/>
      <ItemData ItemOID="IT.QSPH.QSLOBXFL" Value="Y"/>
      <ItemData ItemOID="IT.QSPH.VISITNUM" Value="3"/>
      <ItemData ItemOID="IT.QSPH.VISIT" Value="BASELINE"/>
      <ItemData ItemOID="IT.QSPH.EPOCH" Value="SCREENING"/>
      <ItemData ItemOID="IT.QSPH.QSDTC" Value="2013-08-29"/>
      <ItemData ItemOID="IT.QSPH.QSDY" Value="1"/>
      <ItemData ItemOID="IT.QSPH.QSEVLINT" Value="-P2W"/>
    </ItemGroupData>
    <ItemGroupData ItemGroupOID="IG.QSPH" data:ItemGroupDataSeq="42">
      <ItemData ItemOID="IT.QSPH.STUDYID" Value="CDISCPILOT01"/>
      <ItemData ItemOID="IT.QSPH.DOMAIN" Value="QS"/>
      <ItemData ItemOID="IT.QSPH.USUBJID" Value="CDISC003"/>
      <ItemData ItemOID="IT.QSPH.QSSEQ" Value="9"/>
      <ItemData ItemOID="IT.QSPH.QSTESTCD" Value="PHQ0109"/>
      <ItemData ItemOID="IT.QSPH.QSTEST" Value="PHQ01-Thoughts You Be Better Off Dead"/>
      <ItemData ItemOID="IT.QSPH.QSCAT" Value="PHQ-9"/>
      <ItemData ItemOID="IT.QSPH.QSORRES" Value="Several days"/>
      <ItemData ItemOID="IT.QSPH.QSSTRESC" Value="1"/>
      <ItemData ItemOID="IT.QSPH.QSSTRESN" Value="1"/>
      <ItemData ItemOID="IT.QSPH.QSLOBXFL" Value="Y"/>
      <ItemData ItemOID="IT.QSPH.VISITNUM" Value="3"/>
      <ItemData ItemOID="IT.QSPH.VISIT" Value="BASELINE"/>
      <ItemData ItemOID="IT.QSPH.EPOCH" Value="SCREENING"/>
      <ItemData ItemOID="IT.QSPH.QSDTC" Value="2013-08-29"/>
      <ItemData ItemOID="IT.QSPH.QSDY" Value="1"/>
      <ItemData ItemOID="IT.QSPH.QSEVLINT" Value="-P2W"/>
    </ItemGroupData>
    <ItemGroupData ItemGroupOID="IG.QSPH" data:ItemGroupDataSeq="43">
      <ItemData ItemOID="IT.QSPH.STUDYID" Value="CDISCPILOT01"/>
      <ItemData ItemOID="IT.QSPH.DOMAIN" Value="QS"/>
      <ItemData ItemOID="IT.QSPH.USUBJID" Value="CDISC003"/>
      <ItemData ItemOID="IT.QSPH.QSSEQ" Value="10"/>
      <ItemData ItemOID="IT.QSPH.QSTESTCD" Value="PHQ0110"/>
      <ItemData ItemOID="IT.QSPH.QSTEST" Value="PHQ01-Difficult to Work/Take Care Things"/>
      <ItemData ItemOID="IT.QSPH.QSCAT" Value="PHQ-9"/>
      <ItemData ItemOID="IT.QSPH.QSORRES" Value="Not difficult at all"/>
      <ItemData ItemOID="IT.QSPH.QSSTRESC" Value="Not difficult at all"/>
      <ItemData ItemOID="IT.QSPH.QSLOBXFL" Value="Y"/>
      <ItemData ItemOID="IT.QSPH.VISITNUM" Value="3"/>
      <ItemData ItemOID="IT.QSPH.VISIT" Value="BASELINE"/>
      <ItemData ItemOID="IT.QSPH.EPOCH" Value="SCREENING"/>
      <ItemData ItemOID="IT.QSPH.QSDTC" Value="2013-08-29"/>
      <ItemData ItemOID="IT.QSPH.QSDY" Value="1"/>
      <ItemData ItemOID="IT.QSPH.QSEVLINT" Value="-P2W"/>
    </ItemGroupData>
    <ItemGroupData ItemGroupOID="IG.QSPH" data:ItemGroupDataSeq="44">
      <ItemData ItemOID="IT.QSPH.STUDYID" Value="CDISCPILOT01"/>
      <ItemData ItemOID="IT.QSPH.DOMAIN" Value="QS"/>
      <ItemData ItemOID="IT.QSPH.USUBJID" Value="CDISC003"/>
      <ItemData ItemOID="IT.QSPH.QSSEQ" Value="11"/>
      <ItemData ItemOID="IT.QSPH.QSTESTCD" Value="PHQ0111"/>
      <ItemData ItemOID="IT.QSPH.QSTEST" Value="PHQ01-Total Score"/>
      <ItemData ItemOID="IT.QSPH.QSCAT" Value="PHQ-9"/>
      <ItemData ItemOID="IT.QSPH.QSORRES" Value="2"/>
      <ItemData ItemOID="IT.QSPH.QSSTRESC" Value="2"/>
      <ItemData ItemOID="IT.QSPH.QSSTRESN" Value="2"/>
      <ItemData ItemOID="IT.QSPH.QSLOBXFL" Value="Y"/>
      <ItemData ItemOID="IT.QSPH.VISITNUM" Value="3"/>
      <ItemData ItemOID="IT.QSPH.VISIT" Value="BASELINE"/>
      <ItemData ItemOID="IT.QSPH.EPOCH" Value="SCREENING"/>
      <ItemData ItemOID="IT.QSPH.QSDTC" Value="2013-08-29"/>
      <ItemData ItemOID="IT.QSPH.QSDY" Value="1"/>
      <ItemData ItemOID="IT.QSPH.QSEVLINT" Value="-P2W"/>
    </ItemGroupData>
    <ItemGroupData ItemGroupOID="IG.QSPH" data:ItemGroupDataSeq="45">
      <ItemData ItemOID="IT.QSPH.STUDYID" Value="CDISCPILOT01"/>
      <ItemData ItemOID="IT.QSPH.DOMAIN" Value="QS"/>
      <ItemData ItemOID="IT.QSPH.USUBJID" Value="CDISC003"/>
      <ItemData ItemOID="IT.QSPH.QSSEQ" Value="17"/>
      <ItemData ItemOID="IT.QSPH.QSTESTCD" Value="PHQ0101"/>
      <ItemData ItemOID="IT.QSPH.QSTEST" Value="PHQ01-Little Interest/Pleasure in Things"/>
      <ItemData ItemOID="IT.QSPH.QSCAT" Value="PHQ-9"/>
      <ItemData ItemOID="IT.QSPH.QSORRES" Value="Not at all"/>
      <ItemData ItemOID="IT.QSPH.QSSTRESC" Value="0"/>
      <ItemData ItemOID="IT.QSPH.QSSTRESN" Value="0"/>
      <ItemData ItemOID="IT.QSPH.VISITNUM" Value="9"/>
      <ItemData ItemOID="IT.QSPH.VISIT" Value="WEEK 12"/>
      <ItemData ItemOID="IT.QSPH.EPOCH" Value="TREATMENT"/>
      <ItemData ItemOID="IT.QSPH.QSDTC" Value="2013-11-05"/>
      <ItemData ItemOID="IT.QSPH.QSDY" Value="69"/>
      <ItemData ItemOID="IT.QSPH.QSEVLINT" Value="-P2W"/>
    </ItemGroupData>
    <ItemGroupData ItemGroupOID="IG.QSPH" data:ItemGroupDataSeq="46">
      <ItemData ItemOID="IT.QSPH.STUDYID" Value="CDISCPILOT01"/>
      <ItemData ItemOID="IT.QSPH.DOMAIN" Value="QS"/>
      <ItemData ItemOID="IT.QSPH.USUBJID" Value="CDISC003"/>
      <ItemData ItemOID="IT.QSPH.QSSEQ" Value="18"/>
      <ItemData ItemOID="IT.QSPH.QSTESTCD" Value="PHQ0102"/>
      <ItemData ItemOID="IT.QSPH.QSTEST" Value="PHQ01-Feeling Down Depressed or Hopeless"/>
      <ItemData ItemOID="IT.QSPH.QSCAT" Value="PHQ-9"/>
      <ItemData ItemOID="IT.QSPH.QSORRES" Value="Not at all"/>
      <ItemData ItemOID="IT.QSPH.QSSTRESC" Value="0"/>
      <ItemData ItemOID="IT.QSPH.QSSTRESN" Value="0"/>
      <ItemData ItemOID="IT.QSPH.VISITNUM" Value="9"/>
      <ItemData ItemOID="IT.QSPH.VISIT" Value="WEEK 12"/>
      <ItemData ItemOID="IT.QSPH.EPOCH" Value="TREATMENT"/>
      <ItemData ItemOID="IT.QSPH.QSDTC" Value="2013-11-05"/>
      <ItemData ItemOID="IT.QSPH.QSDY" Value="69"/>
      <ItemData ItemOID="IT.QSPH.QSEVLINT" Value="-P2W"/>
    </ItemGroupData>
    <ItemGroupData ItemGroupOID="IG.QSPH" data:ItemGroupDataSeq="47">
      <ItemData ItemOID="IT.QSPH.STUDYID" Value="CDISCPILOT01"/>
      <ItemData ItemOID="IT.QSPH.DOMAIN" Value="QS"/>
      <ItemData ItemOID="IT.QSPH.USUBJID" Value="CDISC003"/>
      <ItemData ItemOID="IT.QSPH.QSSEQ" Value="19"/>
      <ItemData ItemOID="IT.QSPH.QSTESTCD" Value="PHQ0103"/>
      <ItemData ItemOID="IT.QSPH.QSTEST" Value="PHQ01-Trouble Falling or Staying Asleep"/>
      <ItemData ItemOID="IT.QSPH.QSCAT" Value="PHQ-9"/>
      <ItemData ItemOID="IT.QSPH.QSORRES" Value="Not at all"/>
      <ItemData ItemOID="IT.QSPH.QSSTRESC" Value="0"/>
      <ItemData ItemOID="IT.QSPH.QSSTRESN" Value="0"/>
      <ItemData ItemOID="IT.QSPH.VISITNUM" Value="9"/>
      <ItemData ItemOID="IT.QSPH.VISIT" Value="WEEK 12"/>
      <ItemData ItemOID="IT.QSPH.EPOCH" Value="TREATMENT"/>
      <ItemData ItemOID="IT.QSPH.QSDTC" Value="2013-11-05"/>
      <ItemData ItemOID="IT.QSPH.QSDY" Value="69"/>
      <ItemData ItemOID="IT.QSPH.QSEVLINT" Value="-P2W"/>
    </ItemGroupData>
    <ItemGroupData ItemGroupOID="IG.QSPH" data:ItemGroupDataSeq="48">
      <ItemData ItemOID="IT.QSPH.STUDYID" Value="CDISCPILOT01"/>
      <ItemData ItemOID="IT.QSPH.DOMAIN" Value="QS"/>
      <ItemData ItemOID="IT.QSPH.USUBJID" Value="CDISC003"/>
      <ItemData ItemOID="IT.QSPH.QSSEQ" Value="20"/>
      <ItemData ItemOID="IT.QSPH.QSTESTCD" Value="PHQ0104"/>
      <ItemData ItemOID="IT.QSPH.QSTEST" Value="PHQ01-Feeling Tired or Little Energy"/>
      <ItemData ItemOID="IT.QSPH.QSCAT" Value="PHQ-9"/>
      <ItemData ItemOID="IT.QSPH.QSORRES" Value="Not at all"/>
      <ItemData ItemOID="IT.QSPH.QSSTRESC" Value="0"/>
      <ItemData ItemOID="IT.QSPH.QSSTRESN" Value="0"/>
      <ItemData ItemOID="IT.QSPH.VISITNUM" Value="9"/>
      <ItemData ItemOID="IT.QSPH.VISIT" Value="WEEK 12"/>
      <ItemData ItemOID="IT.QSPH.EPOCH" Value="TREATMENT"/>
      <ItemData ItemOID="IT.QSPH.QSDTC" Value="2013-11-05"/>
      <ItemData ItemOID="IT.QSPH.QSDY" Value="69"/>
      <ItemData ItemOID="IT.QSPH.QSEVLINT" Value="-P2W"/>
    </ItemGroupData>
    <ItemGroupData ItemGroupOID="IG.QSPH" data:ItemGroupDataSeq="49">
      <ItemData ItemOID="IT.QSPH.STUDYID" Value="CDISCPILOT01"/>
      <ItemData ItemOID="IT.QSPH.DOMAIN" Value="QS"/>
      <ItemData ItemOID="IT.QSPH.USUBJID" Value="CDISC003"/>
      <ItemData ItemOID="IT.QSPH.QSSEQ" Value="21"/>
      <ItemData ItemOID="IT.QSPH.QSTESTCD" Value="PHQ0105"/>
      <ItemData ItemOID="IT.QSPH.QSTEST" Value="PHQ01-Poor Appetite or Overeating"/>
      <ItemData ItemOID="IT.QSPH.QSCAT" Value="PHQ-9"/>
      <ItemData ItemOID="IT.QSPH.QSORRES" Value="Not at all"/>
      <ItemData ItemOID="IT.QSPH.QSSTRESC" Value="0"/>
      <ItemData ItemOID="IT.QSPH.QSSTRESN" Value="0"/>
      <ItemData ItemOID="IT.QSPH.VISITNUM" Value="9"/>
      <ItemData ItemOID="IT.QSPH.VISIT" Value="WEEK 12"/>
      <ItemData ItemOID="IT.QSPH.EPOCH" Value="TREATMENT"/>
      <ItemData ItemOID="IT.QSPH.QSDTC" Value="2013-11-05"/>
      <ItemData ItemOID="IT.QSPH.QSDY" Value="69"/>
      <ItemData ItemOID="IT.QSPH.QSEVLINT" Value="-P2W"/>
    </ItemGroupData>
    <ItemGroupData ItemGroupOID="IG.QSPH" data:ItemGroupDataSeq="50">
      <ItemData ItemOID="IT.QSPH.STUDYID" Value="CDISCPILOT01"/>
      <ItemData ItemOID="IT.QSPH.DOMAIN" Value="QS"/>
      <ItemData ItemOID="IT.QSPH.USUBJID" Value="CDISC003"/>
      <ItemData ItemOID="IT.QSPH.QSSEQ" Value="22"/>
      <ItemData ItemOID="IT.QSPH.QSTESTCD" Value="PHQ0106"/>
      <ItemData ItemOID="IT.QSPH.QSTEST" Value="PHQ01-Feeling Bad About Yourself"/>
      <ItemData ItemOID="IT.QSPH.QSCAT" Value="PHQ-9"/>
      <ItemData ItemOID="IT.QSPH.QSORRES" Value="Several days"/>
      <ItemData ItemOID="IT.QSPH.QSSTRESC" Value="1"/>
      <ItemData ItemOID="IT.QSPH.QSSTRESN" Value="1"/>
      <ItemData ItemOID="IT.QSPH.VISITNUM" Value="9"/>
      <ItemData ItemOID="IT.QSPH.VISIT" Value="WEEK 12"/>
      <ItemData ItemOID="IT.QSPH.EPOCH" Value="TREATMENT"/>
      <ItemData ItemOID="IT.QSPH.QSDTC" Value="2013-11-05"/>
      <ItemData ItemOID="IT.QSPH.QSDY" Value="69"/>
      <ItemData ItemOID="IT.QSPH.QSEVLINT" Value="-P2W"/>
    </ItemGroupData>
    <ItemGroupData ItemGroupOID="IG.QSPH" data:ItemGroupDataSeq="51">
      <ItemData ItemOID="IT.QSPH.STUDYID" Value="CDISCPILOT01"/>
      <ItemData ItemOID="IT.QSPH.DOMAIN" Value="QS"/>
      <ItemData ItemOID="IT.QSPH.USUBJID" Value="CDISC003"/>
      <ItemData ItemOID="IT.QSPH.QSSEQ" Value="23"/>
      <ItemData ItemOID="IT.QSPH.QSTESTCD" Value="PHQ0107"/>
      <ItemData ItemOID="IT.QSPH.QSTEST" Value="PHQ01-Trouble Concentrating on Things"/>
      <ItemData ItemOID="IT.QSPH.QSCAT" Value="PHQ-9"/>
      <ItemData ItemOID="IT.QSPH.QSORRES" Value="Not at all"/>
      <ItemData ItemOID="IT.QSPH.QSSTRESC" Value="0"/>
      <ItemData ItemOID="IT.QSPH.QSSTRESN" Value="0"/>
      <ItemData ItemOID="IT.QSPH.VISITNUM" Value="9"/>
      <ItemData ItemOID="IT.QSPH.VISIT" Value="WEEK 12"/>
      <ItemData ItemOID="IT.QSPH.EPOCH" Value="TREATMENT"/>
      <ItemData ItemOID="IT.QSPH.QSDTC" Value="2013-11-05"/>
      <ItemData ItemOID="IT.QSPH.QSDY" Value="69"/>
      <ItemData ItemOID="IT.QSPH.QSEVLINT" Value="-P2W"/>
    </ItemGroupData>
    <ItemGroupData ItemGroupOID="IG.QSPH" data:ItemGroupDataSeq="52">
      <ItemData ItemOID="IT.QSPH.STUDYID" Value="CDISCPILOT01"/>
      <ItemData ItemOID="IT.QSPH.DOMAIN" Value="QS"/>
      <ItemData ItemOID="IT.QSPH.USUBJID" Value="CDISC003"/>
      <ItemData ItemOID="IT.QSPH.QSSEQ" Value="24"/>
      <ItemData ItemOID="IT.QSPH.QSTESTCD" Value="PHQ0108"/>
      <ItemData ItemOID="IT.QSPH.QSTEST" Value="PHQ01-Moving Slowly or Fidgety/Restless"/>
      <ItemData ItemOID="IT.QSPH.QSCAT" Value="PHQ-9"/>
      <ItemData ItemOID="IT.QSPH.QSORRES" Value="Not at all"/>
      <ItemData ItemOID="IT.QSPH.QSSTRESC" Value="0"/>
      <ItemData ItemOID="IT.QSPH.QSSTRESN" Value="0"/>
      <ItemData ItemOID="IT.QSPH.VISITNUM" Value="9"/>
      <ItemData ItemOID="IT.QSPH.VISIT" Value="WEEK 12"/>
      <ItemData ItemOID="IT.QSPH.EPOCH" Value="TREATMENT"/>
      <ItemData ItemOID="IT.QSPH.QSDTC" Value="2013-11-05"/>
      <ItemData ItemOID="IT.QSPH.QSDY" Value="69"/>
      <ItemData ItemOID="IT.QSPH.QSEVLINT" Value="-P2W"/>
    </ItemGroupData>
    <ItemGroupData ItemGroupOID="IG.QSPH" data:ItemGroupDataSeq="53">
      <ItemData ItemOID="IT.QSPH.STUDYID" Value="CDISCPILOT01"/>
      <ItemData ItemOID="IT.QSPH.DOMAIN" Value="QS"/>
      <ItemData ItemOID="IT.QSPH.USUBJID" Value="CDISC003"/>
      <ItemData ItemOID="IT.QSPH.QSSEQ" Value="25"/>
      <ItemData ItemOID="IT.QSPH.QSTESTCD" Value="PHQ0109"/>
      <ItemData ItemOID="IT.QSPH.QSTEST" Value="PHQ01-Thoughts You Be Better Off Dead"/>
      <ItemData ItemOID="IT.QSPH.QSCAT" Value="PHQ-9"/>
      <ItemData ItemOID="IT.QSPH.QSORRES" Value="Several days"/>
      <ItemData ItemOID="IT.QSPH.QSSTRESC" Value="1"/>
      <ItemData ItemOID="IT.QSPH.QSSTRESN" Value="1"/>
      <ItemData ItemOID="IT.QSPH.VISITNUM" Value="9"/>
      <ItemData ItemOID="IT.QSPH.VISIT" Value="WEEK 12"/>
      <ItemData ItemOID="IT.QSPH.EPOCH" Value="TREATMENT"/>
      <ItemData ItemOID="IT.QSPH.QSDTC" Value="2013-11-05"/>
      <ItemData ItemOID="IT.QSPH.QSDY" Value="69"/>
      <ItemData ItemOID="IT.QSPH.QSEVLINT" Value="-P2W"/>
    </ItemGroupData>
    <ItemGroupData ItemGroupOID="IG.QSPH" data:ItemGroupDataSeq="54">
      <ItemData ItemOID="IT.QSPH.STUDYID" Value="CDISCPILOT01"/>
      <ItemData ItemOID="IT.QSPH.DOMAIN" Value="QS"/>
      <ItemData ItemOID="IT.QSPH.USUBJID" Value="CDISC003"/>
      <ItemData ItemOID="IT.QSPH.QSSEQ" Value="26"/>
      <ItemData ItemOID="IT.QSPH.QSTESTCD" Value="PHQ0110"/>
      <ItemData ItemOID="IT.QSPH.QSTEST" Value="PHQ01-Difficult to Work/Take Care Things"/>
      <ItemData ItemOID="IT.QSPH.QSCAT" Value="PHQ-9"/>
      <ItemData ItemOID="IT.QSPH.QSORRES" Value="Not difficult at all"/>
      <ItemData ItemOID="IT.QSPH.QSSTRESC" Value="Not difficult at all"/>
      <ItemData ItemOID="IT.QSPH.VISITNUM" Value="9"/>
      <ItemData ItemOID="IT.QSPH.VISIT" Value="WEEK 12"/>
      <ItemData ItemOID="IT.QSPH.EPOCH" Value="TREATMENT"/>
      <ItemData ItemOID="IT.QSPH.QSDTC" Value="2013-11-05"/>
      <ItemData ItemOID="IT.QSPH.QSDY" Value="69"/>
      <ItemData ItemOID="IT.QSPH.QSEVLINT" Value="-P2W"/>
    </ItemGroupData>
    <ItemGroupData ItemGroupOID="IG.QSPH" data:ItemGroupDataSeq="55">
      <ItemData ItemOID="IT.QSPH.STUDYID" Value="CDISCPILOT01"/>
      <ItemData ItemOID="IT.QSPH.DOMAIN" Value="QS"/>
      <ItemData ItemOID="IT.QSPH.USUBJID" Value="CDISC003"/>
      <ItemData ItemOID="IT.QSPH.QSSEQ" Value="27"/>
      <ItemData ItemOID="IT.QSPH.QSTESTCD" Value="PHQ0111"/>
      <ItemData ItemOID="IT.QSPH.QSTEST" Value="PHQ01-Total Score"/>
      <ItemData ItemOID="IT.QSPH.QSCAT" Value="PHQ-9"/>
      <ItemData ItemOID="IT.QSPH.QSORRES" Value="2"/>
      <ItemData ItemOID="IT.QSPH.QSSTRESC" Value="2"/>
      <ItemData ItemOID="IT.QSPH.QSSTRESN" Value="2"/>
      <ItemData ItemOID="IT.QSPH.VISITNUM" Value="9"/>
      <ItemData ItemOID="IT.QSPH.VISIT" Value="WEEK 12"/>
      <ItemData ItemOID="IT.QSPH.EPOCH" Value="TREATMENT"/>
      <ItemData ItemOID="IT.QSPH.QSDTC" Value="2013-11-05"/>
      <ItemData ItemOID="IT.QSPH.QSDY" Value="69"/>
      <ItemData ItemOID="IT.QSPH.QSEVLINT" Value="-P2W"/>
    </ItemGroupData>
    <ItemGroupData ItemGroupOID="IG.QSPH" data:ItemGroupDataSeq="56">
      <ItemData ItemOID="IT.QSPH.STUDYID" Value="CDISCPILOT01"/>
      <ItemData ItemOID="IT.QSPH.DOMAIN" Value="QS"/>
      <ItemData ItemOID="IT.QSPH.USUBJID" Value="CDISC003"/>
      <ItemData ItemOID="IT.QSPH.QSSEQ" Value="33"/>
      <ItemData ItemOID="IT.QSPH.QSTESTCD" Value="PHQ0101"/>
      <ItemData ItemOID="IT.QSPH.QSTEST" Value="PHQ01-Little Interest/Pleasure in Things"/>
      <ItemData ItemOID="IT.QSPH.QSCAT" Value="PHQ-9"/>
      <ItemData ItemOID="IT.QSPH.QSORRES" Value="Not at all"/>
      <ItemData ItemOID="IT.QSPH.QSSTRESC" Value="0"/>
      <ItemData ItemOID="IT.QSPH.QSSTRESN" Value="0"/>
      <ItemData ItemOID="IT.QSPH.VISITNUM" Value="201"/>
      <ItemData ItemOID="IT.QSPH.VISIT" Value="EARLY DISCONTINUATION RETRIEVAL"/>
      <ItemData ItemOID="IT.QSPH.EPOCH" Value="TREATMENT"/>
      <ItemData ItemOID="IT.QSPH.QSDTC" Value="2014-02-13"/>
      <ItemData ItemOID="IT.QSPH.QSDY" Value="169"/>
      <ItemData ItemOID="IT.QSPH.QSEVLINT" Value="-P2W"/>
    </ItemGroupData>
    <ItemGroupData ItemGroupOID="IG.QSPH" data:ItemGroupDataSeq="57">
      <ItemData ItemOID="IT.QSPH.STUDYID" Value="CDISCPILOT01"/>
      <ItemData ItemOID="IT.QSPH.DOMAIN" Value="QS"/>
      <ItemData ItemOID="IT.QSPH.USUBJID" Value="CDISC003"/>
      <ItemData ItemOID="IT.QSPH.QSSEQ" Value="34"/>
      <ItemData ItemOID="IT.QSPH.QSTESTCD" Value="PHQ0102"/>
      <ItemData ItemOID="IT.QSPH.QSTEST" Value="PHQ01-Feeling Down Depressed or Hopeless"/>
      <ItemData ItemOID="IT.QSPH.QSCAT" Value="PHQ-9"/>
      <ItemData ItemOID="IT.QSPH.QSORRES" Value="Not at all"/>
      <ItemData ItemOID="IT.QSPH.QSSTRESC" Value="0"/>
      <ItemData ItemOID="IT.QSPH.QSSTRESN" Value="0"/>
      <ItemData ItemOID="IT.QSPH.VISITNUM" Value="201"/>
      <ItemData ItemOID="IT.QSPH.VISIT" Value="EARLY DISCONTINUATION RETRIEVAL"/>
      <ItemData ItemOID="IT.QSPH.EPOCH" Value="TREATMENT"/>
      <ItemData ItemOID="IT.QSPH.QSDTC" Value="2014-02-13"/>
      <ItemData ItemOID="IT.QSPH.QSDY" Value="169"/>
      <ItemData ItemOID="IT.QSPH.QSEVLINT" Value="-P2W"/>
    </ItemGroupData>
    <ItemGroupData ItemGroupOID="IG.QSPH" data:ItemGroupDataSeq="58">
      <ItemData ItemOID="IT.QSPH.STUDYID" Value="CDISCPILOT01"/>
      <ItemData ItemOID="IT.QSPH.DOMAIN" Value="QS"/>
      <ItemData ItemOID="IT.QSPH.USUBJID" Value="CDISC003"/>
      <ItemData ItemOID="IT.QSPH.QSSEQ" Value="35"/>
      <ItemData ItemOID="IT.QSPH.QSTESTCD" Value="PHQ0103"/>
      <ItemData ItemOID="IT.QSPH.QSTEST" Value="PHQ01-Trouble Falling or Staying Asleep"/>
      <ItemData ItemOID="IT.QSPH.QSCAT" Value="PHQ-9"/>
      <ItemData ItemOID="IT.QSPH.QSORRES" Value="Not at all"/>
      <ItemData ItemOID="IT.QSPH.QSSTRESC" Value="0"/>
      <ItemData ItemOID="IT.QSPH.QSSTRESN" Value="0"/>
      <ItemData ItemOID="IT.QSPH.VISITNUM" Value="201"/>
      <ItemData ItemOID="IT.QSPH.VISIT" Value="EARLY DISCONTINUATION RETRIEVAL"/>
      <ItemData ItemOID="IT.QSPH.EPOCH" Value="TREATMENT"/>
      <ItemData ItemOID="IT.QSPH.QSDTC" Value="2014-02-13"/>
      <ItemData ItemOID="IT.QSPH.QSDY" Value="169"/>
      <ItemData ItemOID="IT.QSPH.QSEVLINT" Value="-P2W"/>
    </ItemGroupData>
    <ItemGroupData ItemGroupOID="IG.QSPH" data:ItemGroupDataSeq="59">
      <ItemData ItemOID="IT.QSPH.STUDYID" Value="CDISCPILOT01"/>
      <ItemData ItemOID="IT.QSPH.DOMAIN" Value="QS"/>
      <ItemData ItemOID="IT.QSPH.USUBJID" Value="CDISC003"/>
      <ItemData ItemOID="IT.QSPH.QSSEQ" Value="36"/>
      <ItemData ItemOID="IT.QSPH.QSTESTCD" Value="PHQ0104"/>
      <ItemData ItemOID="IT.QSPH.QSTEST" Value="PHQ01-Feeling Tired or Little Energy"/>
      <ItemData ItemOID="IT.QSPH.QSCAT" Value="PHQ-9"/>
      <ItemData ItemOID="IT.QSPH.QSORRES" Value="Not at all"/>
      <ItemData ItemOID="IT.QSPH.QSSTRESC" Value="0"/>
      <ItemData ItemOID="IT.QSPH.QSSTRESN" Value="0"/>
      <ItemData ItemOID="IT.QSPH.VISITNUM" Value="201"/>
      <ItemData ItemOID="IT.QSPH.VISIT" Value="EARLY DISCONTINUATION RETRIEVAL"/>
      <ItemData ItemOID="IT.QSPH.EPOCH" Value="TREATMENT"/>
      <ItemData ItemOID="IT.QSPH.QSDTC" Value="2014-02-13"/>
      <ItemData ItemOID="IT.QSPH.QSDY" Value="169"/>
      <ItemData ItemOID="IT.QSPH.QSEVLINT" Value="-P2W"/>
    </ItemGroupData>
    <ItemGroupData ItemGroupOID="IG.QSPH" data:ItemGroupDataSeq="60">
      <ItemData ItemOID="IT.QSPH.STUDYID" Value="CDISCPILOT01"/>
      <ItemData ItemOID="IT.QSPH.DOMAIN" Value="QS"/>
      <ItemData ItemOID="IT.QSPH.USUBJID" Value="CDISC003"/>
      <ItemData ItemOID="IT.QSPH.QSSEQ" Value="37"/>
      <ItemData ItemOID="IT.QSPH.QSTESTCD" Value="PHQ0105"/>
      <ItemData ItemOID="IT.QSPH.QSTEST" Value="PHQ01-Poor Appetite or Overeating"/>
      <ItemData ItemOID="IT.QSPH.QSCAT" Value="PHQ-9"/>
      <ItemData ItemOID="IT.QSPH.QSORRES" Value="Several days"/>
      <ItemData ItemOID="IT.QSPH.QSSTRESC" Value="1"/>
      <ItemData ItemOID="IT.QSPH.QSSTRESN" Value="1"/>
      <ItemData ItemOID="IT.QSPH.VISITNUM" Value="201"/>
      <ItemData ItemOID="IT.QSPH.VISIT" Value="EARLY DISCONTINUATION RETRIEVAL"/>
      <ItemData ItemOID="IT.QSPH.EPOCH" Value="TREATMENT"/>
      <ItemData ItemOID="IT.QSPH.QSDTC" Value="2014-02-13"/>
      <ItemData ItemOID="IT.QSPH.QSDY" Value="169"/>
      <ItemData ItemOID="IT.QSPH.QSEVLINT" Value="-P2W"/>
    </ItemGroupData>
    <ItemGroupData ItemGroupOID="IG.QSPH" data:ItemGroupDataSeq="61">
      <ItemData ItemOID="IT.QSPH.STUDYID" Value="CDISCPILOT01"/>
      <ItemData ItemOID="IT.QSPH.DOMAIN" Value="QS"/>
      <ItemData ItemOID="IT.QSPH.USUBJID" Value="CDISC003"/>
      <ItemData ItemOID="IT.QSPH.QSSEQ" Value="38"/>
      <ItemData ItemOID="IT.QSPH.QSTESTCD" Value="PHQ0106"/>
      <ItemData ItemOID="IT.QSPH.QSTEST" Value="PHQ01-Feeling Bad About Yourself"/>
      <ItemData ItemOID="IT.QSPH.QSCAT" Value="PHQ-9"/>
      <ItemData ItemOID="IT.QSPH.QSORRES" Value="Not at all"/>
      <ItemData ItemOID="IT.QSPH.QSSTRESC" Value="0"/>
      <ItemData ItemOID="IT.QSPH.QSSTRESN" Value="0"/>
      <ItemData ItemOID="IT.QSPH.VISITNUM" Value="201"/>
      <ItemData ItemOID="IT.QSPH.VISIT" Value="EARLY DISCONTINUATION RETRIEVAL"/>
      <ItemData ItemOID="IT.QSPH.EPOCH" Value="TREATMENT"/>
      <ItemData ItemOID="IT.QSPH.QSDTC" Value="2014-02-13"/>
      <ItemData ItemOID="IT.QSPH.QSDY" Value="169"/>
      <ItemData ItemOID="IT.QSPH.QSEVLINT" Value="-P2W"/>
    </ItemGroupData>
    <ItemGroupData ItemGroupOID="IG.QSPH" data:ItemGroupDataSeq="62">
      <ItemData ItemOID="IT.QSPH.STUDYID" Value="CDISCPILOT01"/>
      <ItemData ItemOID="IT.QSPH.DOMAIN" Value="QS"/>
      <ItemData ItemOID="IT.QSPH.USUBJID" Value="CDISC003"/>
      <ItemData ItemOID="IT.QSPH.QSSEQ" Value="39"/>
      <ItemData ItemOID="IT.QSPH.QSTESTCD" Value="PHQ0107"/>
      <ItemData ItemOID="IT.QSPH.QSTEST" Value="PHQ01-Trouble Concentrating on Things"/>
      <ItemData ItemOID="IT.QSPH.QSCAT" Value="PHQ-9"/>
      <ItemData ItemOID="IT.QSPH.QSORRES" Value="Not at all"/>
      <ItemData ItemOID="IT.QSPH.QSSTRESC" Value="0"/>
      <ItemData ItemOID="IT.QSPH.QSSTRESN" Value="0"/>
      <ItemData ItemOID="IT.QSPH.VISITNUM" Value="201"/>
      <ItemData ItemOID="IT.QSPH.VISIT" Value="EARLY DISCONTINUATION RETRIEVAL"/>
      <ItemData ItemOID="IT.QSPH.EPOCH" Value="TREATMENT"/>
      <ItemData ItemOID="IT.QSPH.QSDTC" Value="2014-02-13"/>
      <ItemData ItemOID="IT.QSPH.QSDY" Value="169"/>
      <ItemData ItemOID="IT.QSPH.QSEVLINT" Value="-P2W"/>
    </ItemGroupData>
    <ItemGroupData ItemGroupOID="IG.QSPH" data:ItemGroupDataSeq="63">
      <ItemData ItemOID="IT.QSPH.STUDYID" Value="CDISCPILOT01"/>
      <ItemData ItemOID="IT.QSPH.DOMAIN" Value="QS"/>
      <ItemData ItemOID="IT.QSPH.USUBJID" Value="CDISC003"/>
      <ItemData ItemOID="IT.QSPH.QSSEQ" Value="40"/>
      <ItemData ItemOID="IT.QSPH.QSTESTCD" Value="PHQ0108"/>
      <ItemData ItemOID="IT.QSPH.QSTEST" Value="PHQ01-Moving Slowly or Fidgety/Restless"/>
      <ItemData ItemOID="IT.QSPH.QSCAT" Value="PHQ-9"/>
      <ItemData ItemOID="IT.QSPH.QSORRES" Value="Not at all"/>
      <ItemData ItemOID="IT.QSPH.QSSTRESC" Value="0"/>
      <ItemData ItemOID="IT.QSPH.QSSTRESN" Value="0"/>
      <ItemData ItemOID="IT.QSPH.VISITNUM" Value="201"/>
      <ItemData ItemOID="IT.QSPH.VISIT" Value="EARLY DISCONTINUATION RETRIEVAL"/>
      <ItemData ItemOID="IT.QSPH.EPOCH" Value="TREATMENT"/>
      <ItemData ItemOID="IT.QSPH.QSDTC" Value="2014-02-13"/>
      <ItemData ItemOID="IT.QSPH.QSDY" Value="169"/>
      <ItemData ItemOID="IT.QSPH.QSEVLINT" Value="-P2W"/>
    </ItemGroupData>
    <ItemGroupData ItemGroupOID="IG.QSPH" data:ItemGroupDataSeq="64">
      <ItemData ItemOID="IT.QSPH.STUDYID" Value="CDISCPILOT01"/>
      <ItemData ItemOID="IT.QSPH.DOMAIN" Value="QS"/>
      <ItemData ItemOID="IT.QSPH.USUBJID" Value="CDISC003"/>
      <ItemData ItemOID="IT.QSPH.QSSEQ" Value="41"/>
      <ItemData ItemOID="IT.QSPH.QSTESTCD" Value="PHQ0109"/>
      <ItemData ItemOID="IT.QSPH.QSTEST" Value="PHQ01-Thoughts You Be Better Off Dead"/>
      <ItemData ItemOID="IT.QSPH.QSCAT" Value="PHQ-9"/>
      <ItemData ItemOID="IT.QSPH.QSORRES" Value="Several days"/>
      <ItemData ItemOID="IT.QSPH.QSSTRESC" Value="1"/>
      <ItemData ItemOID="IT.QSPH.QSSTRESN" Value="1"/>
      <ItemData ItemOID="IT.QSPH.VISITNUM" Value="201"/>
      <ItemData ItemOID="IT.QSPH.VISIT" Value="EARLY DISCONTINUATION RETRIEVAL"/>
      <ItemData ItemOID="IT.QSPH.EPOCH" Value="TREATMENT"/>
      <ItemData ItemOID="IT.QSPH.QSDTC" Value="2014-02-13"/>
      <ItemData ItemOID="IT.QSPH.QSDY" Value="169"/>
      <ItemData ItemOID="IT.QSPH.QSEVLINT" Value="-P2W"/>
    </ItemGroupData>
    <ItemGroupData ItemGroupOID="IG.QSPH" data:ItemGroupDataSeq="65">
      <ItemData ItemOID="IT.QSPH.STUDYID" Value="CDISCPILOT01"/>
      <ItemData ItemOID="IT.QSPH.DOMAIN" Value="QS"/>
      <ItemData ItemOID="IT.QSPH.USUBJID" Value="CDISC003"/>
      <ItemData ItemOID="IT.QSPH.QSSEQ" Value="42"/>
      <ItemData ItemOID="IT.QSPH.QSTESTCD" Value="PHQ0110"/>
      <ItemData ItemOID="IT.QSPH.QSTEST" Value="PHQ01-Difficult to Work/Take Care Things"/>
      <ItemData ItemOID="IT.QSPH.QSCAT" Value="PHQ-9"/>
      <ItemData ItemOID="IT.QSPH.QSORRES" Value="Not difficult at all"/>
      <ItemData ItemOID="IT.QSPH.QSSTRESC" Value="Not difficult at all"/>
      <ItemData ItemOID="IT.QSPH.VISITNUM" Value="201"/>
      <ItemData ItemOID="IT.QSPH.VISIT" Value="EARLY DISCONTINUATION RETRIEVAL"/>
      <ItemData ItemOID="IT.QSPH.EPOCH" Value="TREATMENT"/>
      <ItemData ItemOID="IT.QSPH.QSDTC" Value="2014-02-13"/>
      <ItemData ItemOID="IT.QSPH.QSDY" Value="169"/>
      <ItemData ItemOID="IT.QSPH.QSEVLINT" Value="-P2W"/>
    </ItemGroupData>
    <ItemGroupData ItemGroupOID="IG.QSPH" data:ItemGroupDataSeq="66">
      <ItemData ItemOID="IT.QSPH.STUDYID" Value="CDISCPILOT01"/>
      <ItemData ItemOID="IT.QSPH.DOMAIN" Value="QS"/>
      <ItemData ItemOID="IT.QSPH.USUBJID" Value="CDISC003"/>
      <ItemData ItemOID="IT.QSPH.QSSEQ" Value="43"/>
      <ItemData ItemOID="IT.QSPH.QSTESTCD" Value="PHQ0111"/>
      <ItemData ItemOID="IT.QSPH.QSTEST" Value="PHQ01-Total Score"/>
      <ItemData ItemOID="IT.QSPH.QSCAT" Value="PHQ-9"/>
      <ItemData ItemOID="IT.QSPH.QSORRES" Value="2"/>
      <ItemData ItemOID="IT.QSPH.QSSTRESC" Value="2"/>
      <ItemData ItemOID="IT.QSPH.QSSTRESN" Value="2"/>
      <ItemData ItemOID="IT.QSPH.VISITNUM" Value="201"/>
      <ItemData ItemOID="IT.QSPH.VISIT" Value="EARLY DISCONTINUATION RETRIEVAL"/>
      <ItemData ItemOID="IT.QSPH.EPOCH" Value="TREATMENT"/>
      <ItemData ItemOID="IT.QSPH.QSDTC" Value="2014-02-13"/>
      <ItemData ItemOID="IT.QSPH.QSDY" Value="169"/>
      <ItemData ItemOID="IT.QSPH.QSEVLINT" Value="-P2W"/>
    </ItemGroupData>
    <ItemGroupData ItemGroupOID="IG.QSPH" data:ItemGroupDataSeq="67">
      <ItemData ItemOID="IT.QSPH.STUDYID" Value="CDISCPILOT01"/>
      <ItemData ItemOID="IT.QSPH.DOMAIN" Value="QS"/>
      <ItemData ItemOID="IT.QSPH.USUBJID" Value="CDISC004"/>
      <ItemData ItemOID="IT.QSPH.QSSEQ" Value="1"/>
      <ItemData ItemOID="IT.QSPH.QSTESTCD" Value="PHQ0101"/>
      <ItemData ItemOID="IT.QSPH.QSTEST" Value="PHQ01-Little Interest/Pleasure in Things"/>
      <ItemData ItemOID="IT.QSPH.QSCAT" Value="PHQ-9"/>
      <ItemData ItemOID="IT.QSPH.QSORRES" Value="Nearly every day"/>
      <ItemData ItemOID="IT.QSPH.QSSTRESC" Value="3"/>
      <ItemData ItemOID="IT.QSPH.QSSTRESN" Value="3"/>
      <ItemData ItemOID="IT.QSPH.QSLOBXFL" Value="Y"/>
      <ItemData ItemOID="IT.QSPH.VISITNUM" Value="3"/>
      <ItemData ItemOID="IT.QSPH.VISIT" Value="BASELINE"/>
      <ItemData ItemOID="IT.QSPH.EPOCH" Value="SCREENING"/>
      <ItemData ItemOID="IT.QSPH.QSDTC" Value="2013-10-08"/>
      <ItemData ItemOID="IT.QSPH.QSDY" Value="1"/>
      <ItemData ItemOID="IT.QSPH.QSEVLINT" Value="-P2W"/>
    </ItemGroupData>
    <ItemGroupData ItemGroupOID="IG.QSPH" data:ItemGroupDataSeq="68">
      <ItemData ItemOID="IT.QSPH.STUDYID" Value="CDISCPILOT01"/>
      <ItemData ItemOID="IT.QSPH.DOMAIN" Value="QS"/>
      <ItemData ItemOID="IT.QSPH.USUBJID" Value="CDISC004"/>
      <ItemData ItemOID="IT.QSPH.QSSEQ" Value="2"/>
      <ItemData ItemOID="IT.QSPH.QSTESTCD" Value="PHQ0102"/>
      <ItemData ItemOID="IT.QSPH.QSTEST" Value="PHQ01-Feeling Down Depressed or Hopeless"/>
      <ItemData ItemOID="IT.QSPH.QSCAT" Value="PHQ-9"/>
      <ItemData ItemOID="IT.QSPH.QSORRES" Value="Nearly every day"/>
      <ItemData ItemOID="IT.QSPH.QSSTRESC" Value="3"/>
      <ItemData ItemOID="IT.QSPH.QSSTRESN" Value="3"/>
      <ItemData ItemOID="IT.QSPH.QSLOBXFL" Value="Y"/>
      <ItemData ItemOID="IT.QSPH.VISITNUM" Value="3"/>
      <ItemData ItemOID="IT.QSPH.VISIT" Value="BASELINE"/>
      <ItemData ItemOID="IT.QSPH.EPOCH" Value="SCREENING"/>
      <ItemData ItemOID="IT.QSPH.QSDTC" Value="2013-10-08"/>
      <ItemData ItemOID="IT.QSPH.QSDY" Value="1"/>
      <ItemData ItemOID="IT.QSPH.QSEVLINT" Value="-P2W"/>
    </ItemGroupData>
    <ItemGroupData ItemGroupOID="IG.QSPH" data:ItemGroupDataSeq="69">
      <ItemData ItemOID="IT.QSPH.STUDYID" Value="CDISCPILOT01"/>
      <ItemData ItemOID="IT.QSPH.DOMAIN" Value="QS"/>
      <ItemData ItemOID="IT.QSPH.USUBJID" Value="CDISC004"/>
      <ItemData ItemOID="IT.QSPH.QSSEQ" Value="3"/>
      <ItemData ItemOID="IT.QSPH.QSTESTCD" Value="PHQ0103"/>
      <ItemData ItemOID="IT.QSPH.QSTEST" Value="PHQ01-Trouble Falling or Staying Asleep"/>
      <ItemData ItemOID="IT.QSPH.QSCAT" Value="PHQ-9"/>
      <ItemData ItemOID="IT.QSPH.QSORRES" Value="Nearly every day"/>
      <ItemData ItemOID="IT.QSPH.QSSTRESC" Value="3"/>
      <ItemData ItemOID="IT.QSPH.QSSTRESN" Value="3"/>
      <ItemData ItemOID="IT.QSPH.QSLOBXFL" Value="Y"/>
      <ItemData ItemOID="IT.QSPH.VISITNUM" Value="3"/>
      <ItemData ItemOID="IT.QSPH.VISIT" Value="BASELINE"/>
      <ItemData ItemOID="IT.QSPH.EPOCH" Value="SCREENING"/>
      <ItemData ItemOID="IT.QSPH.QSDTC" Value="2013-10-08"/>
      <ItemData ItemOID="IT.QSPH.QSDY" Value="1"/>
      <ItemData ItemOID="IT.QSPH.QSEVLINT" Value="-P2W"/>
    </ItemGroupData>
    <ItemGroupData ItemGroupOID="IG.QSPH" data:ItemGroupDataSeq="70">
      <ItemData ItemOID="IT.QSPH.STUDYID" Value="CDISCPILOT01"/>
      <ItemData ItemOID="IT.QSPH.DOMAIN" Value="QS"/>
      <ItemData ItemOID="IT.QSPH.USUBJID" Value="CDISC004"/>
      <ItemData ItemOID="IT.QSPH.QSSEQ" Value="4"/>
      <ItemData ItemOID="IT.QSPH.QSTESTCD" Value="PHQ0104"/>
      <ItemData ItemOID="IT.QSPH.QSTEST" Value="PHQ01-Feeling Tired or Little Energy"/>
      <ItemData ItemOID="IT.QSPH.QSCAT" Value="PHQ-9"/>
      <ItemData ItemOID="IT.QSPH.QSORRES" Value="Nearly every day"/>
      <ItemData ItemOID="IT.QSPH.QSSTRESC" Value="3"/>
      <ItemData ItemOID="IT.QSPH.QSSTRESN" Value="3"/>
      <ItemData ItemOID="IT.QSPH.QSLOBXFL" Value="Y"/>
      <ItemData ItemOID="IT.QSPH.VISITNUM" Value="3"/>
      <ItemData ItemOID="IT.QSPH.VISIT" Value="BASELINE"/>
      <ItemData ItemOID="IT.QSPH.EPOCH" Value="SCREENING"/>
      <ItemData ItemOID="IT.QSPH.QSDTC" Value="2013-10-08"/>
      <ItemData ItemOID="IT.QSPH.QSDY" Value="1"/>
      <ItemData ItemOID="IT.QSPH.QSEVLINT" Value="-P2W"/>
    </ItemGroupData>
    <ItemGroupData ItemGroupOID="IG.QSPH" data:ItemGroupDataSeq="71">
      <ItemData ItemOID="IT.QSPH.STUDYID" Value="CDISCPILOT01"/>
      <ItemData ItemOID="IT.QSPH.DOMAIN" Value="QS"/>
      <ItemData ItemOID="IT.QSPH.USUBJID" Value="CDISC004"/>
      <ItemData ItemOID="IT.QSPH.QSSEQ" Value="5"/>
      <ItemData ItemOID="IT.QSPH.QSTESTCD" Value="PHQ0105"/>
      <ItemData ItemOID="IT.QSPH.QSTEST" Value="PHQ01-Poor Appetite or Overeating"/>
      <ItemData ItemOID="IT.QSPH.QSCAT" Value="PHQ-9"/>
      <ItemData ItemOID="IT.QSPH.QSORRES" Value="Nearly every day"/>
      <ItemData ItemOID="IT.QSPH.QSSTRESC" Value="3"/>
      <ItemData ItemOID="IT.QSPH.QSSTRESN" Value="3"/>
      <ItemData ItemOID="IT.QSPH.QSLOBXFL" Value="Y"/>
      <ItemData ItemOID="IT.QSPH.VISITNUM" Value="3"/>
      <ItemData ItemOID="IT.QSPH.VISIT" Value="BASELINE"/>
      <ItemData ItemOID="IT.QSPH.EPOCH" Value="SCREENING"/>
      <ItemData ItemOID="IT.QSPH.QSDTC" Value="2013-10-08"/>
      <ItemData ItemOID="IT.QSPH.QSDY" Value="1"/>
      <ItemData ItemOID="IT.QSPH.QSEVLINT" Value="-P2W"/>
    </ItemGroupData>
    <ItemGroupData ItemGroupOID="IG.QSPH" data:ItemGroupDataSeq="72">
      <ItemData ItemOID="IT.QSPH.STUDYID" Value="CDISCPILOT01"/>
      <ItemData ItemOID="IT.QSPH.DOMAIN" Value="QS"/>
      <ItemData ItemOID="IT.QSPH.USUBJID" Value="CDISC004"/>
      <ItemData ItemOID="IT.QSPH.QSSEQ" Value="6"/>
      <ItemData ItemOID="IT.QSPH.QSTESTCD" Value="PHQ0106"/>
      <ItemData ItemOID="IT.QSPH.QSTEST" Value="PHQ01-Feeling Bad About Yourself"/>
      <ItemData ItemOID="IT.QSPH.QSCAT" Value="PHQ-9"/>
      <ItemData ItemOID="IT.QSPH.QSORRES" Value="Nearly every day"/>
      <ItemData ItemOID="IT.QSPH.QSSTRESC" Value="3"/>
      <ItemData ItemOID="IT.QSPH.QSSTRESN" Value="3"/>
      <ItemData ItemOID="IT.QSPH.QSLOBXFL" Value="Y"/>
      <ItemData ItemOID="IT.QSPH.VISITNUM" Value="3"/>
      <ItemData ItemOID="IT.QSPH.VISIT" Value="BASELINE"/>
      <ItemData ItemOID="IT.QSPH.EPOCH" Value="SCREENING"/>
      <ItemData ItemOID="IT.QSPH.QSDTC" Value="2013-10-08"/>
      <ItemData ItemOID="IT.QSPH.QSDY" Value="1"/>
      <ItemData ItemOID="IT.QSPH.QSEVLINT" Value="-P2W"/>
    </ItemGroupData>
    <ItemGroupData ItemGroupOID="IG.QSPH" data:ItemGroupDataSeq="73">
      <ItemData ItemOID="IT.QSPH.STUDYID" Value="CDISCPILOT01"/>
      <ItemData ItemOID="IT.QSPH.DOMAIN" Value="QS"/>
      <ItemData ItemOID="IT.QSPH.USUBJID" Value="CDISC004"/>
      <ItemData ItemOID="IT.QSPH.QSSEQ" Value="7"/>
      <ItemData ItemOID="IT.QSPH.QSTESTCD" Value="PHQ0107"/>
      <ItemData ItemOID="IT.QSPH.QSTEST" Value="PHQ01-Trouble Concentrating on Things"/>
      <ItemData ItemOID="IT.QSPH.QSCAT" Value="PHQ-9"/>
      <ItemData ItemOID="IT.QSPH.QSORRES" Value="More than half the days"/>
      <ItemData ItemOID="IT.QSPH.QSSTRESC" Value="2"/>
      <ItemData ItemOID="IT.QSPH.QSSTRESN" Value="2"/>
      <ItemData ItemOID="IT.QSPH.QSLOBXFL" Value="Y"/>
      <ItemData ItemOID="IT.QSPH.VISITNUM" Value="3"/>
      <ItemData ItemOID="IT.QSPH.VISIT" Value="BASELINE"/>
      <ItemData ItemOID="IT.QSPH.EPOCH" Value="SCREENING"/>
      <ItemData ItemOID="IT.QSPH.QSDTC" Value="2013-10-08"/>
      <ItemData ItemOID="IT.QSPH.QSDY" Value="1"/>
      <ItemData ItemOID="IT.QSPH.QSEVLINT" Value="-P2W"/>
    </ItemGroupData>
    <ItemGroupData ItemGroupOID="IG.QSPH" data:ItemGroupDataSeq="74">
      <ItemData ItemOID="IT.QSPH.STUDYID" Value="CDISCPILOT01"/>
      <ItemData ItemOID="IT.QSPH.DOMAIN" Value="QS"/>
      <ItemData ItemOID="IT.QSPH.USUBJID" Value="CDISC004"/>
      <ItemData ItemOID="IT.QSPH.QSSEQ" Value="8"/>
      <ItemData ItemOID="IT.QSPH.QSTESTCD" Value="PHQ0108"/>
      <ItemData ItemOID="IT.QSPH.QSTEST" Value="PHQ01-Moving Slowly or Fidgety/Restless"/>
      <ItemData ItemOID="IT.QSPH.QSCAT" Value="PHQ-9"/>
      <ItemData ItemOID="IT.QSPH.QSORRES" Value="Nearly every day"/>
      <ItemData ItemOID="IT.QSPH.QSSTRESC" Value="3"/>
      <ItemData ItemOID="IT.QSPH.QSSTRESN" Value="3"/>
      <ItemData ItemOID="IT.QSPH.QSLOBXFL" Value="Y"/>
      <ItemData ItemOID="IT.QSPH.VISITNUM" Value="3"/>
      <ItemData ItemOID="IT.QSPH.VISIT" Value="BASELINE"/>
      <ItemData ItemOID="IT.QSPH.EPOCH" Value="SCREENING"/>
      <ItemData ItemOID="IT.QSPH.QSDTC" Value="2013-10-08"/>
      <ItemData ItemOID="IT.QSPH.QSDY" Value="1"/>
      <ItemData ItemOID="IT.QSPH.QSEVLINT" Value="-P2W"/>
    </ItemGroupData>
    <ItemGroupData ItemGroupOID="IG.QSPH" data:ItemGroupDataSeq="75">
      <ItemData ItemOID="IT.QSPH.STUDYID" Value="CDISCPILOT01"/>
      <ItemData ItemOID="IT.QSPH.DOMAIN" Value="QS"/>
      <ItemData ItemOID="IT.QSPH.USUBJID" Value="CDISC004"/>
      <ItemData ItemOID="IT.QSPH.QSSEQ" Value="9"/>
      <ItemData ItemOID="IT.QSPH.QSTESTCD" Value="PHQ0109"/>
      <ItemData ItemOID="IT.QSPH.QSTEST" Value="PHQ01-Thoughts You Be Better Off Dead"/>
      <ItemData ItemOID="IT.QSPH.QSCAT" Value="PHQ-9"/>
      <ItemData ItemOID="IT.QSPH.QSORRES" Value="Nearly every day"/>
      <ItemData ItemOID="IT.QSPH.QSSTRESC" Value="3"/>
      <ItemData ItemOID="IT.QSPH.QSSTRESN" Value="3"/>
      <ItemData ItemOID="IT.QSPH.QSLOBXFL" Value="Y"/>
      <ItemData ItemOID="IT.QSPH.VISITNUM" Value="3"/>
      <ItemData ItemOID="IT.QSPH.VISIT" Value="BASELINE"/>
      <ItemData ItemOID="IT.QSPH.EPOCH" Value="SCREENING"/>
      <ItemData ItemOID="IT.QSPH.QSDTC" Value="2013-10-08"/>
      <ItemData ItemOID="IT.QSPH.QSDY" Value="1"/>
      <ItemData ItemOID="IT.QSPH.QSEVLINT" Value="-P2W"/>
    </ItemGroupData>
    <ItemGroupData ItemGroupOID="IG.QSPH" data:ItemGroupDataSeq="76">
      <ItemData ItemOID="IT.QSPH.STUDYID" Value="CDISCPILOT01"/>
      <ItemData ItemOID="IT.QSPH.DOMAIN" Value="QS"/>
      <ItemData ItemOID="IT.QSPH.USUBJID" Value="CDISC004"/>
      <ItemData ItemOID="IT.QSPH.QSSEQ" Value="10"/>
      <ItemData ItemOID="IT.QSPH.QSTESTCD" Value="PHQ0110"/>
      <ItemData ItemOID="IT.QSPH.QSTEST" Value="PHQ01-Difficult to Work/Take Care Things"/>
      <ItemData ItemOID="IT.QSPH.QSCAT" Value="PHQ-9"/>
      <ItemData ItemOID="IT.QSPH.QSORRES" Value="Very difficult"/>
      <ItemData ItemOID="IT.QSPH.QSSTRESC" Value="Very difficult"/>
      <ItemData ItemOID="IT.QSPH.QSLOBXFL" Value="Y"/>
      <ItemData ItemOID="IT.QSPH.VISITNUM" Value="3"/>
      <ItemData ItemOID="IT.QSPH.VISIT" Value="BASELINE"/>
      <ItemData ItemOID="IT.QSPH.EPOCH" Value="SCREENING"/>
      <ItemData ItemOID="IT.QSPH.QSDTC" Value="2013-10-08"/>
      <ItemData ItemOID="IT.QSPH.QSDY" Value="1"/>
      <ItemData ItemOID="IT.QSPH.QSEVLINT" Value="-P2W"/>
    </ItemGroupData>
    <ItemGroupData ItemGroupOID="IG.QSPH" data:ItemGroupDataSeq="77">
      <ItemData ItemOID="IT.QSPH.STUDYID" Value="CDISCPILOT01"/>
      <ItemData ItemOID="IT.QSPH.DOMAIN" Value="QS"/>
      <ItemData ItemOID="IT.QSPH.USUBJID" Value="CDISC004"/>
      <ItemData ItemOID="IT.QSPH.QSSEQ" Value="11"/>
      <ItemData ItemOID="IT.QSPH.QSTESTCD" Value="PHQ0111"/>
      <ItemData ItemOID="IT.QSPH.QSTEST" Value="PHQ01-Total Score"/>
      <ItemData ItemOID="IT.QSPH.QSCAT" Value="PHQ-9"/>
      <ItemData ItemOID="IT.QSPH.QSORRES" Value="27"/>
      <ItemData ItemOID="IT.QSPH.QSSTRESC" Value="27"/>
      <ItemData ItemOID="IT.QSPH.QSSTRESN" Value="27"/>
      <ItemData ItemOID="IT.QSPH.QSLOBXFL" Value="Y"/>
      <ItemData ItemOID="IT.QSPH.VISITNUM" Value="3"/>
      <ItemData ItemOID="IT.QSPH.VISIT" Value="BASELINE"/>
      <ItemData ItemOID="IT.QSPH.EPOCH" Value="SCREENING"/>
      <ItemData ItemOID="IT.QSPH.QSDTC" Value="2013-10-08"/>
      <ItemData ItemOID="IT.QSPH.QSDY" Value="1"/>
      <ItemData ItemOID="IT.QSPH.QSEVLINT" Value="-P2W"/>
    </ItemGroupData>
    <ItemGroupData ItemGroupOID="IG.QSPH" data:ItemGroupDataSeq="78">
      <ItemData ItemOID="IT.QSPH.STUDYID" Value="CDISCPILOT01"/>
      <ItemData ItemOID="IT.QSPH.DOMAIN" Value="QS"/>
      <ItemData ItemOID="IT.QSPH.USUBJID" Value="CDISC007"/>
      <ItemData ItemOID="IT.QSPH.QSSEQ" Value="1"/>
      <ItemData ItemOID="IT.QSPH.QSTESTCD" Value="PHQ0101"/>
      <ItemData ItemOID="IT.QSPH.QSTEST" Value="PHQ01-Little Interest/Pleasure in Things"/>
      <ItemData ItemOID="IT.QSPH.QSCAT" Value="PHQ-9"/>
      <ItemData ItemOID="IT.QSPH.QSORRES" Value="Several days"/>
      <ItemData ItemOID="IT.QSPH.QSSTRESC" Value="1"/>
      <ItemData ItemOID="IT.QSPH.QSSTRESN" Value="1"/>
      <ItemData ItemOID="IT.QSPH.QSLOBXFL" Value="Y"/>
      <ItemData ItemOID="IT.QSPH.VISITNUM" Value="3"/>
      <ItemData ItemOID="IT.QSPH.VISIT" Value="BASELINE"/>
      <ItemData ItemOID="IT.QSPH.EPOCH" Value="SCREENING"/>
      <ItemData ItemOID="IT.QSPH.QSDTC" Value="2013-01-05"/>
      <ItemData ItemOID="IT.QSPH.QSDY" Value="1"/>
      <ItemData ItemOID="IT.QSPH.QSEVLINT" Value="-P2W"/>
    </ItemGroupData>
    <ItemGroupData ItemGroupOID="IG.QSPH" data:ItemGroupDataSeq="79">
      <ItemData ItemOID="IT.QSPH.STUDYID" Value="CDISCPILOT01"/>
      <ItemData ItemOID="IT.QSPH.DOMAIN" Value="QS"/>
      <ItemData ItemOID="IT.QSPH.USUBJID" Value="CDISC007"/>
      <ItemData ItemOID="IT.QSPH.QSSEQ" Value="2"/>
      <ItemData ItemOID="IT.QSPH.QSTESTCD" Value="PHQ0102"/>
      <ItemData ItemOID="IT.QSPH.QSTEST" Value="PHQ01-Feeling Down Depressed or Hopeless"/>
      <ItemData ItemOID="IT.QSPH.QSCAT" Value="PHQ-9"/>
      <ItemData ItemOID="IT.QSPH.QSORRES" Value="Not at all"/>
      <ItemData ItemOID="IT.QSPH.QSSTRESC" Value="0"/>
      <ItemData ItemOID="IT.QSPH.QSSTRESN" Value="0"/>
      <ItemData ItemOID="IT.QSPH.QSLOBXFL" Value="Y"/>
      <ItemData ItemOID="IT.QSPH.VISITNUM" Value="3"/>
      <ItemData ItemOID="IT.QSPH.VISIT" Value="BASELINE"/>
      <ItemData ItemOID="IT.QSPH.EPOCH" Value="SCREENING"/>
      <ItemData ItemOID="IT.QSPH.QSDTC" Value="2013-01-05"/>
      <ItemData ItemOID="IT.QSPH.QSDY" Value="1"/>
      <ItemData ItemOID="IT.QSPH.QSEVLINT" Value="-P2W"/>
    </ItemGroupData>
    <ItemGroupData ItemGroupOID="IG.QSPH" data:ItemGroupDataSeq="80">
      <ItemData ItemOID="IT.QSPH.STUDYID" Value="CDISCPILOT01"/>
      <ItemData ItemOID="IT.QSPH.DOMAIN" Value="QS"/>
      <ItemData ItemOID="IT.QSPH.USUBJID" Value="CDISC007"/>
      <ItemData ItemOID="IT.QSPH.QSSEQ" Value="3"/>
      <ItemData ItemOID="IT.QSPH.QSTESTCD" Value="PHQ0103"/>
      <ItemData ItemOID="IT.QSPH.QSTEST" Value="PHQ01-Trouble Falling or Staying Asleep"/>
      <ItemData ItemOID="IT.QSPH.QSCAT" Value="PHQ-9"/>
      <ItemData ItemOID="IT.QSPH.QSORRES" Value="Several days"/>
      <ItemData ItemOID="IT.QSPH.QSSTRESC" Value="1"/>
      <ItemData ItemOID="IT.QSPH.QSSTRESN" Value="1"/>
      <ItemData ItemOID="IT.QSPH.QSLOBXFL" Value="Y"/>
      <ItemData ItemOID="IT.QSPH.VISITNUM" Value="3"/>
      <ItemData ItemOID="IT.QSPH.VISIT" Value="BASELINE"/>
      <ItemData ItemOID="IT.QSPH.EPOCH" Value="SCREENING"/>
      <ItemData ItemOID="IT.QSPH.QSDTC" Value="2013-01-05"/>
      <ItemData ItemOID="IT.QSPH.QSDY" Value="1"/>
      <ItemData ItemOID="IT.QSPH.QSEVLINT" Value="-P2W"/>
    </ItemGroupData>
    <ItemGroupData ItemGroupOID="IG.QSPH" data:ItemGroupDataSeq="81">
      <ItemData ItemOID="IT.QSPH.STUDYID" Value="CDISCPILOT01"/>
      <ItemData ItemOID="IT.QSPH.DOMAIN" Value="QS"/>
      <ItemData ItemOID="IT.QSPH.USUBJID" Value="CDISC007"/>
      <ItemData ItemOID="IT.QSPH.QSSEQ" Value="4"/>
      <ItemData ItemOID="IT.QSPH.QSTESTCD" Value="PHQ0104"/>
      <ItemData ItemOID="IT.QSPH.QSTEST" Value="PHQ01-Feeling Tired or Little Energy"/>
      <ItemData ItemOID="IT.QSPH.QSCAT" Value="PHQ-9"/>
      <ItemData ItemOID="IT.QSPH.QSORRES" Value="Not at all"/>
      <ItemData ItemOID="IT.QSPH.QSSTRESC" Value="0"/>
      <ItemData ItemOID="IT.QSPH.QSSTRESN" Value="0"/>
      <ItemData ItemOID="IT.QSPH.QSLOBXFL" Value="Y"/>
      <ItemData ItemOID="IT.QSPH.VISITNUM" Value="3"/>
      <ItemData ItemOID="IT.QSPH.VISIT" Value="BASELINE"/>
      <ItemData ItemOID="IT.QSPH.EPOCH" Value="SCREENING"/>
      <ItemData ItemOID="IT.QSPH.QSDTC" Value="2013-01-05"/>
      <ItemData ItemOID="IT.QSPH.QSDY" Value="1"/>
      <ItemData ItemOID="IT.QSPH.QSEVLINT" Value="-P2W"/>
    </ItemGroupData>
    <ItemGroupData ItemGroupOID="IG.QSPH" data:ItemGroupDataSeq="82">
      <ItemData ItemOID="IT.QSPH.STUDYID" Value="CDISCPILOT01"/>
      <ItemData ItemOID="IT.QSPH.DOMAIN" Value="QS"/>
      <ItemData ItemOID="IT.QSPH.USUBJID" Value="CDISC007"/>
      <ItemData ItemOID="IT.QSPH.QSSEQ" Value="5"/>
      <ItemData ItemOID="IT.QSPH.QSTESTCD" Value="PHQ0105"/>
      <ItemData ItemOID="IT.QSPH.QSTEST" Value="PHQ01-Poor Appetite or Overeating"/>
      <ItemData ItemOID="IT.QSPH.QSCAT" Value="PHQ-9"/>
      <ItemData ItemOID="IT.QSPH.QSORRES" Value="Not at all"/>
      <ItemData ItemOID="IT.QSPH.QSSTRESC" Value="0"/>
      <ItemData ItemOID="IT.QSPH.QSSTRESN" Value="0"/>
      <ItemData ItemOID="IT.QSPH.QSLOBXFL" Value="Y"/>
      <ItemData ItemOID="IT.QSPH.VISITNUM" Value="3"/>
      <ItemData ItemOID="IT.QSPH.VISIT" Value="BASELINE"/>
      <ItemData ItemOID="IT.QSPH.EPOCH" Value="SCREENING"/>
      <ItemData ItemOID="IT.QSPH.QSDTC" Value="2013-01-05"/>
      <ItemData ItemOID="IT.QSPH.QSDY" Value="1"/>
      <ItemData ItemOID="IT.QSPH.QSEVLINT" Value="-P2W"/>
    </ItemGroupData>
    <ItemGroupData ItemGroupOID="IG.QSPH" data:ItemGroupDataSeq="83">
      <ItemData ItemOID="IT.QSPH.STUDYID" Value="CDISCPILOT01"/>
      <ItemData ItemOID="IT.QSPH.DOMAIN" Value="QS"/>
      <ItemData ItemOID="IT.QSPH.USUBJID" Value="CDISC007"/>
      <ItemData ItemOID="IT.QSPH.QSSEQ" Value="6"/>
      <ItemData ItemOID="IT.QSPH.QSTESTCD" Value="PHQ0106"/>
      <ItemData ItemOID="IT.QSPH.QSTEST" Value="PHQ01-Feeling Bad About Yourself"/>
      <ItemData ItemOID="IT.QSPH.QSCAT" Value="PHQ-9"/>
      <ItemData ItemOID="IT.QSPH.QSORRES" Value="Several days"/>
      <ItemData ItemOID="IT.QSPH.QSSTRESC" Value="1"/>
      <ItemData ItemOID="IT.QSPH.QSSTRESN" Value="1"/>
      <ItemData ItemOID="IT.QSPH.QSLOBXFL" Value="Y"/>
      <ItemData ItemOID="IT.QSPH.VISITNUM" Value="3"/>
      <ItemData ItemOID="IT.QSPH.VISIT" Value="BASELINE"/>
      <ItemData ItemOID="IT.QSPH.EPOCH" Value="SCREENING"/>
      <ItemData ItemOID="IT.QSPH.QSDTC" Value="2013-01-05"/>
      <ItemData ItemOID="IT.QSPH.QSDY" Value="1"/>
      <ItemData ItemOID="IT.QSPH.QSEVLINT" Value="-P2W"/>
    </ItemGroupData>
    <ItemGroupData ItemGroupOID="IG.QSPH" data:ItemGroupDataSeq="84">
      <ItemData ItemOID="IT.QSPH.STUDYID" Value="CDISCPILOT01"/>
      <ItemData ItemOID="IT.QSPH.DOMAIN" Value="QS"/>
      <ItemData ItemOID="IT.QSPH.USUBJID" Value="CDISC007"/>
      <ItemData ItemOID="IT.QSPH.QSSEQ" Value="7"/>
      <ItemData ItemOID="IT.QSPH.QSTESTCD" Value="PHQ0107"/>
      <ItemData ItemOID="IT.QSPH.QSTEST" Value="PHQ01-Trouble Concentrating on Things"/>
      <ItemData ItemOID="IT.QSPH.QSCAT" Value="PHQ-9"/>
      <ItemData ItemOID="IT.QSPH.QSORRES" Value="Not at all"/>
      <ItemData ItemOID="IT.QSPH.QSSTRESC" Value="0"/>
      <ItemData ItemOID="IT.QSPH.QSSTRESN" Value="0"/>
      <ItemData ItemOID="IT.QSPH.QSLOBXFL" Value="Y"/>
      <ItemData ItemOID="IT.QSPH.VISITNUM" Value="3"/>
      <ItemData ItemOID="IT.QSPH.VISIT" Value="BASELINE"/>
      <ItemData ItemOID="IT.QSPH.EPOCH" Value="SCREENING"/>
      <ItemData ItemOID="IT.QSPH.QSDTC" Value="2013-01-05"/>
      <ItemData ItemOID="IT.QSPH.QSDY" Value="1"/>
      <ItemData ItemOID="IT.QSPH.QSEVLINT" Value="-P2W"/>
    </ItemGroupData>
    <ItemGroupData ItemGroupOID="IG.QSPH" data:ItemGroupDataSeq="85">
      <ItemData ItemOID="IT.QSPH.STUDYID" Value="CDISCPILOT01"/>
      <ItemData ItemOID="IT.QSPH.DOMAIN" Value="QS"/>
      <ItemData ItemOID="IT.QSPH.USUBJID" Value="CDISC007"/>
      <ItemData ItemOID="IT.QSPH.QSSEQ" Value="8"/>
      <ItemData ItemOID="IT.QSPH.QSTESTCD" Value="PHQ0108"/>
      <ItemData ItemOID="IT.QSPH.QSTEST" Value="PHQ01-Moving Slowly or Fidgety/Restless"/>
      <ItemData ItemOID="IT.QSPH.QSCAT" Value="PHQ-9"/>
      <ItemData ItemOID="IT.QSPH.QSORRES" Value="Several days"/>
      <ItemData ItemOID="IT.QSPH.QSSTRESC" Value="1"/>
      <ItemData ItemOID="IT.QSPH.QSSTRESN" Value="1"/>
      <ItemData ItemOID="IT.QSPH.QSLOBXFL" Value="Y"/>
      <ItemData ItemOID="IT.QSPH.VISITNUM" Value="3"/>
      <ItemData ItemOID="IT.QSPH.VISIT" Value="BASELINE"/>
      <ItemData ItemOID="IT.QSPH.EPOCH" Value="SCREENING"/>
      <ItemData ItemOID="IT.QSPH.QSDTC" Value="2013-01-05"/>
      <ItemData ItemOID="IT.QSPH.QSDY" Value="1"/>
      <ItemData ItemOID="IT.QSPH.QSEVLINT" Value="-P2W"/>
    </ItemGroupData>
    <ItemGroupData ItemGroupOID="IG.QSPH" data:ItemGroupDataSeq="86">
      <ItemData ItemOID="IT.QSPH.STUDYID" Value="CDISCPILOT01"/>
      <ItemData ItemOID="IT.QSPH.DOMAIN" Value="QS"/>
      <ItemData ItemOID="IT.QSPH.USUBJID" Value="CDISC007"/>
      <ItemData ItemOID="IT.QSPH.QSSEQ" Value="9"/>
      <ItemData ItemOID="IT.QSPH.QSTESTCD" Value="PHQ0109"/>
      <ItemData ItemOID="IT.QSPH.QSTEST" Value="PHQ01-Thoughts You Be Better Off Dead"/>
      <ItemData ItemOID="IT.QSPH.QSCAT" Value="PHQ-9"/>
      <ItemData ItemOID="IT.QSPH.QSORRES" Value="Not at all"/>
      <ItemData ItemOID="IT.QSPH.QSSTRESC" Value="0"/>
      <ItemData ItemOID="IT.QSPH.QSSTRESN" Value="0"/>
      <ItemData ItemOID="IT.QSPH.QSLOBXFL" Value="Y"/>
      <ItemData ItemOID="IT.QSPH.VISITNUM" Value="3"/>
      <ItemData ItemOID="IT.QSPH.VISIT" Value="BASELINE"/>
      <ItemData ItemOID="IT.QSPH.EPOCH" Value="SCREENING"/>
      <ItemData ItemOID="IT.QSPH.QSDTC" Value="2013-01-05"/>
      <ItemData ItemOID="IT.QSPH.QSDY" Value="1"/>
      <ItemData ItemOID="IT.QSPH.QSEVLINT" Value="-P2W"/>
    </ItemGroupData>
    <ItemGroupData ItemGroupOID="IG.QSPH" data:ItemGroupDataSeq="87">
      <ItemData ItemOID="IT.QSPH.STUDYID" Value="CDISCPILOT01"/>
      <ItemData ItemOID="IT.QSPH.DOMAIN" Value="QS"/>
      <ItemData ItemOID="IT.QSPH.USUBJID" Value="CDISC007"/>
      <ItemData ItemOID="IT.QSPH.QSSEQ" Value="10"/>
      <ItemData ItemOID="IT.QSPH.QSTESTCD" Value="PHQ0110"/>
      <ItemData ItemOID="IT.QSPH.QSTEST" Value="PHQ01-Difficult to Work/Take Care Things"/>
      <ItemData ItemOID="IT.QSPH.QSCAT" Value="PHQ-9"/>
      <ItemData ItemOID="IT.QSPH.QSORRES" Value="Not difficult at all"/>
      <ItemData ItemOID="IT.QSPH.QSSTRESC" Value="Not difficult at all"/>
      <ItemData ItemOID="IT.QSPH.QSLOBXFL" Value="Y"/>
      <ItemData ItemOID="IT.QSPH.VISITNUM" Value="3"/>
      <ItemData ItemOID="IT.QSPH.VISIT" Value="BASELINE"/>
      <ItemData ItemOID="IT.QSPH.EPOCH" Value="SCREENING"/>
      <ItemData ItemOID="IT.QSPH.QSDTC" Value="2013-01-05"/>
      <ItemData ItemOID="IT.QSPH.QSDY" Value="1"/>
      <ItemData ItemOID="IT.QSPH.QSEVLINT" Value="-P2W"/>
    </ItemGroupData>
    <ItemGroupData ItemGroupOID="IG.QSPH" data:ItemGroupDataSeq="88">
      <ItemData ItemOID="IT.QSPH.STUDYID" Value="CDISCPILOT01"/>
      <ItemData ItemOID="IT.QSPH.DOMAIN" Value="QS"/>
      <ItemData ItemOID="IT.QSPH.USUBJID" Value="CDISC007"/>
      <ItemData ItemOID="IT.QSPH.QSSEQ" Value="11"/>
      <ItemData ItemOID="IT.QSPH.QSTESTCD" Value="PHQ0111"/>
      <ItemData ItemOID="IT.QSPH.QSTEST" Value="PHQ01-Total Score"/>
      <ItemData ItemOID="IT.QSPH.QSCAT" Value="PHQ-9"/>
      <ItemData ItemOID="IT.QSPH.QSORRES" Value="4"/>
      <ItemData ItemOID="IT.QSPH.QSSTRESC" Value="4"/>
      <ItemData ItemOID="IT.QSPH.QSSTRESN" Value="4"/>
      <ItemData ItemOID="IT.QSPH.QSLOBXFL" Value="Y"/>
      <ItemData ItemOID="IT.QSPH.VISITNUM" Value="3"/>
      <ItemData ItemOID="IT.QSPH.VISIT" Value="BASELINE"/>
      <ItemData ItemOID="IT.QSPH.EPOCH" Value="SCREENING"/>
      <ItemData ItemOID="IT.QSPH.QSDTC" Value="2013-01-05"/>
      <ItemData ItemOID="IT.QSPH.QSDY" Value="1"/>
      <ItemData ItemOID="IT.QSPH.QSEVLINT" Value="-P2W"/>
    </ItemGroupData>
    <ItemGroupData ItemGroupOID="IG.QSPH" data:ItemGroupDataSeq="89">
      <ItemData ItemOID="IT.QSPH.STUDYID" Value="CDISCPILOT01"/>
      <ItemData ItemOID="IT.QSPH.DOMAIN" Value="QS"/>
      <ItemData ItemOID="IT.QSPH.USUBJID" Value="CDISC008"/>
      <ItemData ItemOID="IT.QSPH.QSSEQ" Value="1"/>
      <ItemData ItemOID="IT.QSPH.QSTESTCD" Value="PHQ0101"/>
      <ItemData ItemOID="IT.QSPH.QSTEST" Value="PHQ01-Little Interest/Pleasure in Things"/>
      <ItemData ItemOID="IT.QSPH.QSCAT" Value="PHQ-9"/>
      <ItemData ItemOID="IT.QSPH.QSORRES" Value="More than half the days"/>
      <ItemData ItemOID="IT.QSPH.QSSTRESC" Value="2"/>
      <ItemData ItemOID="IT.QSPH.QSSTRESN" Value="2"/>
      <ItemData ItemOID="IT.QSPH.QSLOBXFL" Value="Y"/>
      <ItemData ItemOID="IT.QSPH.VISITNUM" Value="3"/>
      <ItemData ItemOID="IT.QSPH.VISIT" Value="BASELINE"/>
      <ItemData ItemOID="IT.QSPH.EPOCH" Value="SCREENING"/>
      <ItemData ItemOID="IT.QSPH.QSDTC" Value="2014-05-11"/>
      <ItemData ItemOID="IT.QSPH.QSDY" Value="1"/>
      <ItemData ItemOID="IT.QSPH.QSEVLINT" Value="-P2W"/>
    </ItemGroupData>
    <ItemGroupData ItemGroupOID="IG.QSPH" data:ItemGroupDataSeq="90">
      <ItemData ItemOID="IT.QSPH.STUDYID" Value="CDISCPILOT01"/>
      <ItemData ItemOID="IT.QSPH.DOMAIN" Value="QS"/>
      <ItemData ItemOID="IT.QSPH.USUBJID" Value="CDISC008"/>
      <ItemData ItemOID="IT.QSPH.QSSEQ" Value="2"/>
      <ItemData ItemOID="IT.QSPH.QSTESTCD" Value="PHQ0102"/>
      <ItemData ItemOID="IT.QSPH.QSTEST" Value="PHQ01-Feeling Down Depressed or Hopeless"/>
      <ItemData ItemOID="IT.QSPH.QSCAT" Value="PHQ-9"/>
      <ItemData ItemOID="IT.QSPH.QSORRES" Value="Several days"/>
      <ItemData ItemOID="IT.QSPH.QSSTRESC" Value="1"/>
      <ItemData ItemOID="IT.QSPH.QSSTRESN" Value="1"/>
      <ItemData ItemOID="IT.QSPH.QSLOBXFL" Value="Y"/>
      <ItemData ItemOID="IT.QSPH.VISITNUM" Value="3"/>
      <ItemData ItemOID="IT.QSPH.VISIT" Value="BASELINE"/>
      <ItemData ItemOID="IT.QSPH.EPOCH" Value="SCREENING"/>
      <ItemData ItemOID="IT.QSPH.QSDTC" Value="2014-05-11"/>
      <ItemData ItemOID="IT.QSPH.QSDY" Value="1"/>
      <ItemData ItemOID="IT.QSPH.QSEVLINT" Value="-P2W"/>
    </ItemGroupData>
    <ItemGroupData ItemGroupOID="IG.QSPH" data:ItemGroupDataSeq="91">
      <ItemData ItemOID="IT.QSPH.STUDYID" Value="CDISCPILOT01"/>
      <ItemData ItemOID="IT.QSPH.DOMAIN" Value="QS"/>
      <ItemData ItemOID="IT.QSPH.USUBJID" Value="CDISC008"/>
      <ItemData ItemOID="IT.QSPH.QSSEQ" Value="3"/>
      <ItemData ItemOID="IT.QSPH.QSTESTCD" Value="PHQ0103"/>
      <ItemData ItemOID="IT.QSPH.QSTEST" Value="PHQ01-Trouble Falling or Staying Asleep"/>
      <ItemData ItemOID="IT.QSPH.QSCAT" Value="PHQ-9"/>
      <ItemData ItemOID="IT.QSPH.QSORRES" Value="More than half the days"/>
      <ItemData ItemOID="IT.QSPH.QSSTRESC" Value="2"/>
      <ItemData ItemOID="IT.QSPH.QSSTRESN" Value="2"/>
      <ItemData ItemOID="IT.QSPH.QSLOBXFL" Value="Y"/>
      <ItemData ItemOID="IT.QSPH.VISITNUM" Value="3"/>
      <ItemData ItemOID="IT.QSPH.VISIT" Value="BASELINE"/>
      <ItemData ItemOID="IT.QSPH.EPOCH" Value="SCREENING"/>
      <ItemData ItemOID="IT.QSPH.QSDTC" Value="2014-05-11"/>
      <ItemData ItemOID="IT.QSPH.QSDY" Value="1"/>
      <ItemData ItemOID="IT.QSPH.QSEVLINT" Value="-P2W"/>
    </ItemGroupData>
    <ItemGroupData ItemGroupOID="IG.QSPH" data:ItemGroupDataSeq="92">
      <ItemData ItemOID="IT.QSPH.STUDYID" Value="CDISCPILOT01"/>
      <ItemData ItemOID="IT.QSPH.DOMAIN" Value="QS"/>
      <ItemData ItemOID="IT.QSPH.USUBJID" Value="CDISC008"/>
      <ItemData ItemOID="IT.QSPH.QSSEQ" Value="4"/>
      <ItemData ItemOID="IT.QSPH.QSTESTCD" Value="PHQ0104"/>
      <ItemData ItemOID="IT.QSPH.QSTEST" Value="PHQ01-Feeling Tired or Little Energy"/>
      <ItemData ItemOID="IT.QSPH.QSCAT" Value="PHQ-9"/>
      <ItemData ItemOID="IT.QSPH.QSORRES" Value="Several days"/>
      <ItemData ItemOID="IT.QSPH.QSSTRESC" Value="1"/>
      <ItemData ItemOID="IT.QSPH.QSSTRESN" Value="1"/>
      <ItemData ItemOID="IT.QSPH.QSLOBXFL" Value="Y"/>
      <ItemData ItemOID="IT.QSPH.VISITNUM" Value="3"/>
      <ItemData ItemOID="IT.QSPH.VISIT" Value="BASELINE"/>
      <ItemData ItemOID="IT.QSPH.EPOCH" Value="SCREENING"/>
      <ItemData ItemOID="IT.QSPH.QSDTC" Value="2014-05-11"/>
      <ItemData ItemOID="IT.QSPH.QSDY" Value="1"/>
      <ItemData ItemOID="IT.QSPH.QSEVLINT" Value="-P2W"/>
    </ItemGroupData>
    <ItemGroupData ItemGroupOID="IG.QSPH" data:ItemGroupDataSeq="93">
      <ItemData ItemOID="IT.QSPH.STUDYID" Value="CDISCPILOT01"/>
      <ItemData ItemOID="IT.QSPH.DOMAIN" Value="QS"/>
      <ItemData ItemOID="IT.QSPH.USUBJID" Value="CDISC008"/>
      <ItemData ItemOID="IT.QSPH.QSSEQ" Value="5"/>
      <ItemData ItemOID="IT.QSPH.QSTESTCD" Value="PHQ0105"/>
      <ItemData ItemOID="IT.QSPH.QSTEST" Value="PHQ01-Poor Appetite or Overeating"/>
      <ItemData ItemOID="IT.QSPH.QSCAT" Value="PHQ-9"/>
      <ItemData ItemOID="IT.QSPH.QSORRES" Value="More than half the days"/>
      <ItemData ItemOID="IT.QSPH.QSSTRESC" Value="2"/>
      <ItemData ItemOID="IT.QSPH.QSSTRESN" Value="2"/>
      <ItemData ItemOID="IT.QSPH.QSLOBXFL" Value="Y"/>
      <ItemData ItemOID="IT.QSPH.VISITNUM" Value="3"/>
      <ItemData ItemOID="IT.QSPH.VISIT" Value="BASELINE"/>
      <ItemData ItemOID="IT.QSPH.EPOCH" Value="SCREENING"/>
      <ItemData ItemOID="IT.QSPH.QSDTC" Value="2014-05-11"/>
      <ItemData ItemOID="IT.QSPH.QSDY" Value="1"/>
      <ItemData ItemOID="IT.QSPH.QSEVLINT" Value="-P2W"/>
    </ItemGroupData>
    <ItemGroupData ItemGroupOID="IG.QSPH" data:ItemGroupDataSeq="94">
      <ItemData ItemOID="IT.QSPH.STUDYID" Value="CDISCPILOT01"/>
      <ItemData ItemOID="IT.QSPH.DOMAIN" Value="QS"/>
      <ItemData ItemOID="IT.QSPH.USUBJID" Value="CDISC008"/>
      <ItemData ItemOID="IT.QSPH.QSSEQ" Value="6"/>
      <ItemData ItemOID="IT.QSPH.QSTESTCD" Value="PHQ0106"/>
      <ItemData ItemOID="IT.QSPH.QSTEST" Value="PHQ01-Feeling Bad About Yourself"/>
      <ItemData ItemOID="IT.QSPH.QSCAT" Value="PHQ-9"/>
      <ItemData ItemOID="IT.QSPH.QSORRES" Value="Several days"/>
      <ItemData ItemOID="IT.QSPH.QSSTRESC" Value="1"/>
      <ItemData ItemOID="IT.QSPH.QSSTRESN" Value="1"/>
      <ItemData ItemOID="IT.QSPH.QSLOBXFL" Value="Y"/>
      <ItemData ItemOID="IT.QSPH.VISITNUM" Value="3"/>
      <ItemData ItemOID="IT.QSPH.VISIT" Value="BASELINE"/>
      <ItemData ItemOID="IT.QSPH.EPOCH" Value="SCREENING"/>
      <ItemData ItemOID="IT.QSPH.QSDTC" Value="2014-05-11"/>
      <ItemData ItemOID="IT.QSPH.QSDY" Value="1"/>
      <ItemData ItemOID="IT.QSPH.QSEVLINT" Value="-P2W"/>
    </ItemGroupData>
    <ItemGroupData ItemGroupOID="IG.QSPH" data:ItemGroupDataSeq="95">
      <ItemData ItemOID="IT.QSPH.STUDYID" Value="CDISCPILOT01"/>
      <ItemData ItemOID="IT.QSPH.DOMAIN" Value="QS"/>
      <ItemData ItemOID="IT.QSPH.USUBJID" Value="CDISC008"/>
      <ItemData ItemOID="IT.QSPH.QSSEQ" Value="7"/>
      <ItemData ItemOID="IT.QSPH.QSTESTCD" Value="PHQ0107"/>
      <ItemData ItemOID="IT.QSPH.QSTEST" Value="PHQ01-Trouble Concentrating on Things"/>
      <ItemData ItemOID="IT.QSPH.QSCAT" Value="PHQ-9"/>
      <ItemData ItemOID="IT.QSPH.QSORRES" Value="Not at all"/>
      <ItemData ItemOID="IT.QSPH.QSSTRESC" Value="0"/>
      <ItemData ItemOID="IT.QSPH.QSSTRESN" Value="0"/>
      <ItemData ItemOID="IT.QSPH.QSLOBXFL" Value="Y"/>
      <ItemData ItemOID="IT.QSPH.VISITNUM" Value="3"/>
      <ItemData ItemOID="IT.QSPH.VISIT" Value="BASELINE"/>
      <ItemData ItemOID="IT.QSPH.EPOCH" Value="SCREENING"/>
      <ItemData ItemOID="IT.QSPH.QSDTC" Value="2014-05-11"/>
      <ItemData ItemOID="IT.QSPH.QSDY" Value="1"/>
      <ItemData ItemOID="IT.QSPH.QSEVLINT" Value="-P2W"/>
    </ItemGroupData>
    <ItemGroupData ItemGroupOID="IG.QSPH" data:ItemGroupDataSeq="96">
      <ItemData ItemOID="IT.QSPH.STUDYID" Value="CDISCPILOT01"/>
      <ItemData ItemOID="IT.QSPH.DOMAIN" Value="QS"/>
      <ItemData ItemOID="IT.QSPH.USUBJID" Value="CDISC008"/>
      <ItemData ItemOID="IT.QSPH.QSSEQ" Value="8"/>
      <ItemData ItemOID="IT.QSPH.QSTESTCD" Value="PHQ0108"/>
      <ItemData ItemOID="IT.QSPH.QSTEST" Value="PHQ01-Moving Slowly or Fidgety/Restless"/>
      <ItemData ItemOID="IT.QSPH.QSCAT" Value="PHQ-9"/>
      <ItemData ItemOID="IT.QSPH.QSORRES" Value="More than half the days"/>
      <ItemData ItemOID="IT.QSPH.QSSTRESC" Value="2"/>
      <ItemData ItemOID="IT.QSPH.QSSTRESN" Value="2"/>
      <ItemData ItemOID="IT.QSPH.QSLOBXFL" Value="Y"/>
      <ItemData ItemOID="IT.QSPH.VISITNUM" Value="3"/>
      <ItemData ItemOID="IT.QSPH.VISIT" Value="BASELINE"/>
      <ItemData ItemOID="IT.QSPH.EPOCH" Value="SCREENING"/>
      <ItemData ItemOID="IT.QSPH.QSDTC" Value="2014-05-11"/>
      <ItemData ItemOID="IT.QSPH.QSDY" Value="1"/>
      <ItemData ItemOID="IT.QSPH.QSEVLINT" Value="-P2W"/>
    </ItemGroupData>
    <ItemGroupData ItemGroupOID="IG.QSPH" data:ItemGroupDataSeq="97">
      <ItemData ItemOID="IT.QSPH.STUDYID" Value="CDISCPILOT01"/>
      <ItemData ItemOID="IT.QSPH.DOMAIN" Value="QS"/>
      <ItemData ItemOID="IT.QSPH.USUBJID" Value="CDISC008"/>
      <ItemData ItemOID="IT.QSPH.QSSEQ" Value="9"/>
      <ItemData ItemOID="IT.QSPH.QSTESTCD" Value="PHQ0109"/>
      <ItemData ItemOID="IT.QSPH.QSTEST" Value="PHQ01-Thoughts You Be Better Off Dead"/>
      <ItemData ItemOID="IT.QSPH.QSCAT" Value="PHQ-9"/>
      <ItemData ItemOID="IT.QSPH.QSORRES" Value="More than half the days"/>
      <ItemData ItemOID="IT.QSPH.QSSTRESC" Value="2"/>
      <ItemData ItemOID="IT.QSPH.QSSTRESN" Value="2"/>
      <ItemData ItemOID="IT.QSPH.QSLOBXFL" Value="Y"/>
      <ItemData ItemOID="IT.QSPH.VISITNUM" Value="3"/>
      <ItemData ItemOID="IT.QSPH.VISIT" Value="BASELINE"/>
      <ItemData ItemOID="IT.QSPH.EPOCH" Value="SCREENING"/>
      <ItemData ItemOID="IT.QSPH.QSDTC" Value="2014-05-11"/>
      <ItemData ItemOID="IT.QSPH.QSDY" Value="1"/>
      <ItemData ItemOID="IT.QSPH.QSEVLINT" Value="-P2W"/>
    </ItemGroupData>
    <ItemGroupData ItemGroupOID="IG.QSPH" data:ItemGroupDataSeq="98">
      <ItemData ItemOID="IT.QSPH.STUDYID" Value="CDISCPILOT01"/>
      <ItemData ItemOID="IT.QSPH.DOMAIN" Value="QS"/>
      <ItemData ItemOID="IT.QSPH.USUBJID" Value="CDISC008"/>
      <ItemData ItemOID="IT.QSPH.QSSEQ" Value="10"/>
      <ItemData ItemOID="IT.QSPH.QSTESTCD" Value="PHQ0110"/>
      <ItemData ItemOID="IT.QSPH.QSTEST" Value="PHQ01-Difficult to Work/Take Care Things"/>
      <ItemData ItemOID="IT.QSPH.QSCAT" Value="PHQ-9"/>
      <ItemData ItemOID="IT.QSPH.QSORRES" Value="Not difficult at all"/>
      <ItemData ItemOID="IT.QSPH.QSSTRESC" Value="Not difficult at all"/>
      <ItemData ItemOID="IT.QSPH.QSLOBXFL" Value="Y"/>
      <ItemData ItemOID="IT.QSPH.VISITNUM" Value="3"/>
      <ItemData ItemOID="IT.QSPH.VISIT" Value="BASELINE"/>
      <ItemData ItemOID="IT.QSPH.EPOCH" Value="SCREENING"/>
      <ItemData ItemOID="IT.QSPH.QSDTC" Value="2014-05-11"/>
      <ItemData ItemOID="IT.QSPH.QSDY" Value="1"/>
      <ItemData ItemOID="IT.QSPH.QSEVLINT" Value="-P2W"/>
    </ItemGroupData>
    <ItemGroupData ItemGroupOID="IG.QSPH" data:ItemGroupDataSeq="99">
      <ItemData ItemOID="IT.QSPH.STUDYID" Value="CDISCPILOT01"/>
      <ItemData ItemOID="IT.QSPH.DOMAIN" Value="QS"/>
      <ItemData ItemOID="IT.QSPH.USUBJID" Value="CDISC008"/>
      <ItemData ItemOID="IT.QSPH.QSSEQ" Value="11"/>
      <ItemData ItemOID="IT.QSPH.QSTESTCD" Value="PHQ0111"/>
      <ItemData ItemOID="IT.QSPH.QSTEST" Value="PHQ01-Total Score"/>
      <ItemData ItemOID="IT.QSPH.QSCAT" Value="PHQ-9"/>
      <ItemData ItemOID="IT.QSPH.QSORRES" Value="13"/>
      <ItemData ItemOID="IT.QSPH.QSSTRESC" Value="13"/>
      <ItemData ItemOID="IT.QSPH.QSSTRESN" Value="13"/>
      <ItemData ItemOID="IT.QSPH.QSLOBXFL" Value="Y"/>
      <ItemData ItemOID="IT.QSPH.VISITNUM" Value="3"/>
      <ItemData ItemOID="IT.QSPH.VISIT" Value="BASELINE"/>
      <ItemData ItemOID="IT.QSPH.EPOCH" Value="SCREENING"/>
      <ItemData ItemOID="IT.QSPH.QSDTC" Value="2014-05-11"/>
      <ItemData ItemOID="IT.QSPH.QSDY" Value="1"/>
      <ItemData ItemOID="IT.QSPH.QSEVLINT" Value="-P2W"/>
    </ItemGroupData>
    <ItemGroupData ItemGroupOID="IG.QSPH" data:ItemGroupDataSeq="100">
      <ItemData ItemOID="IT.QSPH.STUDYID" Value="CDISCPILOT01"/>
      <ItemData ItemOID="IT.QSPH.DOMAIN" Value="QS"/>
      <ItemData ItemOID="IT.QSPH.USUBJID" Value="CDISC008"/>
      <ItemData ItemOID="IT.QSPH.QSSEQ" Value="17"/>
      <ItemData ItemOID="IT.QSPH.QSTESTCD" Value="PHQ0101"/>
      <ItemData ItemOID="IT.QSPH.QSTEST" Value="PHQ01-Little Interest/Pleasure in Things"/>
      <ItemData ItemOID="IT.QSPH.QSCAT" Value="PHQ-9"/>
      <ItemData ItemOID="IT.QSPH.QSORRES" Value="More than half the days"/>
      <ItemData ItemOID="IT.QSPH.QSSTRESC" Value="2"/>
      <ItemData ItemOID="IT.QSPH.QSSTRESN" Value="2"/>
      <ItemData ItemOID="IT.QSPH.VISITNUM" Value="10"/>
      <ItemData ItemOID="IT.QSPH.VISIT" Value="WEEK 16"/>
      <ItemData ItemOID="IT.QSPH.EPOCH" Value="TREATMENT"/>
      <ItemData ItemOID="IT.QSPH.QSDTC" Value="2014-09-03"/>
      <ItemData ItemOID="IT.QSPH.QSDY" Value="116"/>
      <ItemData ItemOID="IT.QSPH.QSEVLINT" Value="-P2W"/>
    </ItemGroupData>
    <ItemGroupData ItemGroupOID="IG.QSPH" data:ItemGroupDataSeq="101">
      <ItemData ItemOID="IT.QSPH.STUDYID" Value="CDISCPILOT01"/>
      <ItemData ItemOID="IT.QSPH.DOMAIN" Value="QS"/>
      <ItemData ItemOID="IT.QSPH.USUBJID" Value="CDISC008"/>
      <ItemData ItemOID="IT.QSPH.QSSEQ" Value="18"/>
      <ItemData ItemOID="IT.QSPH.QSTESTCD" Value="PHQ0102"/>
      <ItemData ItemOID="IT.QSPH.QSTEST" Value="PHQ01-Feeling Down Depressed or Hopeless"/>
      <ItemData ItemOID="IT.QSPH.QSCAT" Value="PHQ-9"/>
      <ItemData ItemOID="IT.QSPH.QSORRES" Value="Several days"/>
      <ItemData ItemOID="IT.QSPH.QSSTRESC" Value="1"/>
      <ItemData ItemOID="IT.QSPH.QSSTRESN" Value="1"/>
      <ItemData ItemOID="IT.QSPH.VISITNUM" Value="10"/>
      <ItemData ItemOID="IT.QSPH.VISIT" Value="WEEK 16"/>
      <ItemData ItemOID="IT.QSPH.EPOCH" Value="TREATMENT"/>
      <ItemData ItemOID="IT.QSPH.QSDTC" Value="2014-09-03"/>
      <ItemData ItemOID="IT.QSPH.QSDY" Value="116"/>
      <ItemData ItemOID="IT.QSPH.QSEVLINT" Value="-P2W"/>
    </ItemGroupData>
    <ItemGroupData ItemGroupOID="IG.QSPH" data:ItemGroupDataSeq="102">
      <ItemData ItemOID="IT.QSPH.STUDYID" Value="CDISCPILOT01"/>
      <ItemData ItemOID="IT.QSPH.DOMAIN" Value="QS"/>
      <ItemData ItemOID="IT.QSPH.USUBJID" Value="CDISC008"/>
      <ItemData ItemOID="IT.QSPH.QSSEQ" Value="19"/>
      <ItemData ItemOID="IT.QSPH.QSTESTCD" Value="PHQ0103"/>
      <ItemData ItemOID="IT.QSPH.QSTEST" Value="PHQ01-Trouble Falling or Staying Asleep"/>
      <ItemData ItemOID="IT.QSPH.QSCAT" Value="PHQ-9"/>
      <ItemData ItemOID="IT.QSPH.QSORRES" Value="Several days"/>
      <ItemData ItemOID="IT.QSPH.QSSTRESC" Value="1"/>
      <ItemData ItemOID="IT.QSPH.QSSTRESN" Value="1"/>
      <ItemData ItemOID="IT.QSPH.VISITNUM" Value="10"/>
      <ItemData ItemOID="IT.QSPH.VISIT" Value="WEEK 16"/>
      <ItemData ItemOID="IT.QSPH.EPOCH" Value="TREATMENT"/>
      <ItemData ItemOID="IT.QSPH.QSDTC" Value="2014-09-03"/>
      <ItemData ItemOID="IT.QSPH.QSDY" Value="116"/>
      <ItemData ItemOID="IT.QSPH.QSEVLINT" Value="-P2W"/>
    </ItemGroupData>
    <ItemGroupData ItemGroupOID="IG.QSPH" data:ItemGroupDataSeq="103">
      <ItemData ItemOID="IT.QSPH.STUDYID" Value="CDISCPILOT01"/>
      <ItemData ItemOID="IT.QSPH.DOMAIN" Value="QS"/>
      <ItemData ItemOID="IT.QSPH.USUBJID" Value="CDISC008"/>
      <ItemData ItemOID="IT.QSPH.QSSEQ" Value="20"/>
      <ItemData ItemOID="IT.QSPH.QSTESTCD" Value="PHQ0104"/>
      <ItemData ItemOID="IT.QSPH.QSTEST" Value="PHQ01-Feeling Tired or Little Energy"/>
      <ItemData ItemOID="IT.QSPH.QSCAT" Value="PHQ-9"/>
      <ItemData ItemOID="IT.QSPH.QSORRES" Value="Several days"/>
      <ItemData ItemOID="IT.QSPH.QSSTRESC" Value="1"/>
      <ItemData ItemOID="IT.QSPH.QSSTRESN" Value="1"/>
      <ItemData ItemOID="IT.QSPH.VISITNUM" Value="10"/>
      <ItemData ItemOID="IT.QSPH.VISIT" Value="WEEK 16"/>
      <ItemData ItemOID="IT.QSPH.EPOCH" Value="TREATMENT"/>
      <ItemData ItemOID="IT.QSPH.QSDTC" Value="2014-09-03"/>
      <ItemData ItemOID="IT.QSPH.QSDY" Value="116"/>
      <ItemData ItemOID="IT.QSPH.QSEVLINT" Value="-P2W"/>
    </ItemGroupData>
    <ItemGroupData ItemGroupOID="IG.QSPH" data:ItemGroupDataSeq="104">
      <ItemData ItemOID="IT.QSPH.STUDYID" Value="CDISCPILOT01"/>
      <ItemData ItemOID="IT.QSPH.DOMAIN" Value="QS"/>
      <ItemData ItemOID="IT.QSPH.USUBJID" Value="CDISC008"/>
      <ItemData ItemOID="IT.QSPH.QSSEQ" Value="21"/>
      <ItemData ItemOID="IT.QSPH.QSTESTCD" Value="PHQ0105"/>
      <ItemData ItemOID="IT.QSPH.QSTEST" Value="PHQ01-Poor Appetite or Overeating"/>
      <ItemData ItemOID="IT.QSPH.QSCAT" Value="PHQ-9"/>
      <ItemData ItemOID="IT.QSPH.QSORRES" Value="Not at all"/>
      <ItemData ItemOID="IT.QSPH.QSSTRESC" Value="0"/>
      <ItemData ItemOID="IT.QSPH.QSSTRESN" Value="0"/>
      <ItemData ItemOID="IT.QSPH.VISITNUM" Value="10"/>
      <ItemData ItemOID="IT.QSPH.VISIT" Value="WEEK 16"/>
      <ItemData ItemOID="IT.QSPH.EPOCH" Value="TREATMENT"/>
      <ItemData ItemOID="IT.QSPH.QSDTC" Value="2014-09-03"/>
      <ItemData ItemOID="IT.QSPH.QSDY" Value="116"/>
      <ItemData ItemOID="IT.QSPH.QSEVLINT" Value="-P2W"/>
    </ItemGroupData>
    <ItemGroupData ItemGroupOID="IG.QSPH" data:ItemGroupDataSeq="105">
      <ItemData ItemOID="IT.QSPH.STUDYID" Value="CDISCPILOT01"/>
      <ItemData ItemOID="IT.QSPH.DOMAIN" Value="QS"/>
      <ItemData ItemOID="IT.QSPH.USUBJID" Value="CDISC008"/>
      <ItemData ItemOID="IT.QSPH.QSSEQ" Value="22"/>
      <ItemData ItemOID="IT.QSPH.QSTESTCD" Value="PHQ0106"/>
      <ItemData ItemOID="IT.QSPH.QSTEST" Value="PHQ01-Feeling Bad About Yourself"/>
      <ItemData ItemOID="IT.QSPH.QSCAT" Value="PHQ-9"/>
      <ItemData ItemOID="IT.QSPH.QSORRES" Value="Several days"/>
      <ItemData ItemOID="IT.QSPH.QSSTRESC" Value="1"/>
      <ItemData ItemOID="IT.QSPH.QSSTRESN" Value="1"/>
      <ItemData ItemOID="IT.QSPH.VISITNUM" Value="10"/>
      <ItemData ItemOID="IT.QSPH.VISIT" Value="WEEK 16"/>
      <ItemData ItemOID="IT.QSPH.EPOCH" Value="TREATMENT"/>
      <ItemData ItemOID="IT.QSPH.QSDTC" Value="2014-09-03"/>
      <ItemData ItemOID="IT.QSPH.QSDY" Value="116"/>
      <ItemData ItemOID="IT.QSPH.QSEVLINT" Value="-P2W"/>
    </ItemGroupData>
    <ItemGroupData ItemGroupOID="IG.QSPH" data:ItemGroupDataSeq="106">
      <ItemData ItemOID="IT.QSPH.STUDYID" Value="CDISCPILOT01"/>
      <ItemData ItemOID="IT.QSPH.DOMAIN" Value="QS"/>
      <ItemData ItemOID="IT.QSPH.USUBJID" Value="CDISC008"/>
      <ItemData ItemOID="IT.QSPH.QSSEQ" Value="23"/>
      <ItemData ItemOID="IT.QSPH.QSTESTCD" Value="PHQ0107"/>
      <ItemData ItemOID="IT.QSPH.QSTEST" Value="PHQ01-Trouble Concentrating on Things"/>
      <ItemData ItemOID="IT.QSPH.QSCAT" Value="PHQ-9"/>
      <ItemData ItemOID="IT.QSPH.QSORRES" Value="Not at all"/>
      <ItemData ItemOID="IT.QSPH.QSSTRESC" Value="0"/>
      <ItemData ItemOID="IT.QSPH.QSSTRESN" Value="0"/>
      <ItemData ItemOID="IT.QSPH.VISITNUM" Value="10"/>
      <ItemData ItemOID="IT.QSPH.VISIT" Value="WEEK 16"/>
      <ItemData ItemOID="IT.QSPH.EPOCH" Value="TREATMENT"/>
      <ItemData ItemOID="IT.QSPH.QSDTC" Value="2014-09-03"/>
      <ItemData ItemOID="IT.QSPH.QSDY" Value="116"/>
      <ItemData ItemOID="IT.QSPH.QSEVLINT" Value="-P2W"/>
    </ItemGroupData>
    <ItemGroupData ItemGroupOID="IG.QSPH" data:ItemGroupDataSeq="107">
      <ItemData ItemOID="IT.QSPH.STUDYID" Value="CDISCPILOT01"/>
      <ItemData ItemOID="IT.QSPH.DOMAIN" Value="QS"/>
      <ItemData ItemOID="IT.QSPH.USUBJID" Value="CDISC008"/>
      <ItemData ItemOID="IT.QSPH.QSSEQ" Value="24"/>
      <ItemData ItemOID="IT.QSPH.QSTESTCD" Value="PHQ0108"/>
      <ItemData ItemOID="IT.QSPH.QSTEST" Value="PHQ01-Moving Slowly or Fidgety/Restless"/>
      <ItemData ItemOID="IT.QSPH.QSCAT" Value="PHQ-9"/>
      <ItemData ItemOID="IT.QSPH.QSORRES" Value="More than half the days"/>
      <ItemData ItemOID="IT.QSPH.QSSTRESC" Value="2"/>
      <ItemData ItemOID="IT.QSPH.QSSTRESN" Value="2"/>
      <ItemData ItemOID="IT.QSPH.VISITNUM" Value="10"/>
      <ItemData ItemOID="IT.QSPH.VISIT" Value="WEEK 16"/>
      <ItemData ItemOID="IT.QSPH.EPOCH" Value="TREATMENT"/>
      <ItemData ItemOID="IT.QSPH.QSDTC" Value="2014-09-03"/>
      <ItemData ItemOID="IT.QSPH.QSDY" Value="116"/>
      <ItemData ItemOID="IT.QSPH.QSEVLINT" Value="-P2W"/>
    </ItemGroupData>
    <ItemGroupData ItemGroupOID="IG.QSPH" data:ItemGroupDataSeq="108">
      <ItemData ItemOID="IT.QSPH.STUDYID" Value="CDISCPILOT01"/>
      <ItemData ItemOID="IT.QSPH.DOMAIN" Value="QS"/>
      <ItemData ItemOID="IT.QSPH.USUBJID" Value="CDISC008"/>
      <ItemData ItemOID="IT.QSPH.QSSEQ" Value="25"/>
      <ItemData ItemOID="IT.QSPH.QSTESTCD" Value="PHQ0109"/>
      <ItemData ItemOID="IT.QSPH.QSTEST" Value="PHQ01-Thoughts You Be Better Off Dead"/>
      <ItemData ItemOID="IT.QSPH.QSCAT" Value="PHQ-9"/>
      <ItemData ItemOID="IT.QSPH.QSORRES" Value="Several days"/>
      <ItemData ItemOID="IT.QSPH.QSSTRESC" Value="1"/>
      <ItemData ItemOID="IT.QSPH.QSSTRESN" Value="1"/>
      <ItemData ItemOID="IT.QSPH.VISITNUM" Value="10"/>
      <ItemData ItemOID="IT.QSPH.VISIT" Value="WEEK 16"/>
      <ItemData ItemOID="IT.QSPH.EPOCH" Value="TREATMENT"/>
      <ItemData ItemOID="IT.QSPH.QSDTC" Value="2014-09-03"/>
      <ItemData ItemOID="IT.QSPH.QSDY" Value="116"/>
      <ItemData ItemOID="IT.QSPH.QSEVLINT" Value="-P2W"/>
    </ItemGroupData>
    <ItemGroupData ItemGroupOID="IG.QSPH" data:ItemGroupDataSeq="109">
      <ItemData ItemOID="IT.QSPH.STUDYID" Value="CDISCPILOT01"/>
      <ItemData ItemOID="IT.QSPH.DOMAIN" Value="QS"/>
      <ItemData ItemOID="IT.QSPH.USUBJID" Value="CDISC008"/>
      <ItemData ItemOID="IT.QSPH.QSSEQ" Value="26"/>
      <ItemData ItemOID="IT.QSPH.QSTESTCD" Value="PHQ0110"/>
      <ItemData ItemOID="IT.QSPH.QSTEST" Value="PHQ01-Difficult to Work/Take Care Things"/>
      <ItemData ItemOID="IT.QSPH.QSCAT" Value="PHQ-9"/>
      <ItemData ItemOID="IT.QSPH.QSORRES" Value="Not difficult at all"/>
      <ItemData ItemOID="IT.QSPH.QSSTRESC" Value="Not difficult at all"/>
      <ItemData ItemOID="IT.QSPH.VISITNUM" Value="10"/>
      <ItemData ItemOID="IT.QSPH.VISIT" Value="WEEK 16"/>
      <ItemData ItemOID="IT.QSPH.EPOCH" Value="TREATMENT"/>
      <ItemData ItemOID="IT.QSPH.QSDTC" Value="2014-09-03"/>
      <ItemData ItemOID="IT.QSPH.QSDY" Value="116"/>
      <ItemData ItemOID="IT.QSPH.QSEVLINT" Value="-P2W"/>
    </ItemGroupData>
    <ItemGroupData ItemGroupOID="IG.QSPH" data:ItemGroupDataSeq="110">
      <ItemData ItemOID="IT.QSPH.STUDYID" Value="CDISCPILOT01"/>
      <ItemData ItemOID="IT.QSPH.DOMAIN" Value="QS"/>
      <ItemData ItemOID="IT.QSPH.USUBJID" Value="CDISC008"/>
      <ItemData ItemOID="IT.QSPH.QSSEQ" Value="27"/>
      <ItemData ItemOID="IT.QSPH.QSTESTCD" Value="PHQ0111"/>
      <ItemData ItemOID="IT.QSPH.QSTEST" Value="PHQ01-Total Score"/>
      <ItemData ItemOID="IT.QSPH.QSCAT" Value="PHQ-9"/>
      <ItemData ItemOID="IT.QSPH.QSORRES" Value="9"/>
      <ItemData ItemOID="IT.QSPH.QSSTRESC" Value="9"/>
      <ItemData ItemOID="IT.QSPH.QSSTRESN" Value="9"/>
      <ItemData ItemOID="IT.QSPH.VISITNUM" Value="10"/>
      <ItemData ItemOID="IT.QSPH.VISIT" Value="WEEK 16"/>
      <ItemData ItemOID="IT.QSPH.EPOCH" Value="TREATMENT"/>
      <ItemData ItemOID="IT.QSPH.QSDTC" Value="2014-09-03"/>
      <ItemData ItemOID="IT.QSPH.QSDY" Value="116"/>
      <ItemData ItemOID="IT.QSPH.QSEVLINT" Value="-P2W"/>
    </ItemGroupData>
    <ItemGroupData ItemGroupOID="IG.QSPH" data:ItemGroupDataSeq="111">
      <ItemData ItemOID="IT.QSPH.STUDYID" Value="CDISCPILOT01"/>
      <ItemData ItemOID="IT.QSPH.DOMAIN" Value="QS"/>
      <ItemData ItemOID="IT.QSPH.USUBJID" Value="CDISC009"/>
      <ItemData ItemOID="IT.QSPH.QSSEQ" Value="1"/>
      <ItemData ItemOID="IT.QSPH.QSTESTCD" Value="PHQ0101"/>
      <ItemData ItemOID="IT.QSPH.QSTEST" Value="PHQ01-Little Interest/Pleasure in Things"/>
      <ItemData ItemOID="IT.QSPH.QSCAT" Value="PHQ-9"/>
      <ItemData ItemOID="IT.QSPH.QSORRES" Value="Several days"/>
      <ItemData ItemOID="IT.QSPH.QSSTRESC" Value="1"/>
      <ItemData ItemOID="IT.QSPH.QSSTRESN" Value="1"/>
      <ItemData ItemOID="IT.QSPH.QSLOBXFL" Value="Y"/>
      <ItemData ItemOID="IT.QSPH.VISITNUM" Value="3"/>
      <ItemData ItemOID="IT.QSPH.VISIT" Value="BASELINE"/>
      <ItemData ItemOID="IT.QSPH.EPOCH" Value="SCREENING"/>
      <ItemData ItemOID="IT.QSPH.QSDTC" Value="2012-10-22"/>
      <ItemData ItemOID="IT.QSPH.QSDY" Value="1"/>
      <ItemData ItemOID="IT.QSPH.QSEVLINT" Value="-P2W"/>
    </ItemGroupData>
    <ItemGroupData ItemGroupOID="IG.QSPH" data:ItemGroupDataSeq="112">
      <ItemData ItemOID="IT.QSPH.STUDYID" Value="CDISCPILOT01"/>
      <ItemData ItemOID="IT.QSPH.DOMAIN" Value="QS"/>
      <ItemData ItemOID="IT.QSPH.USUBJID" Value="CDISC009"/>
      <ItemData ItemOID="IT.QSPH.QSSEQ" Value="2"/>
      <ItemData ItemOID="IT.QSPH.QSTESTCD" Value="PHQ0102"/>
      <ItemData ItemOID="IT.QSPH.QSTEST" Value="PHQ01-Feeling Down Depressed or Hopeless"/>
      <ItemData ItemOID="IT.QSPH.QSCAT" Value="PHQ-9"/>
      <ItemData ItemOID="IT.QSPH.QSORRES" Value="Several days"/>
      <ItemData ItemOID="IT.QSPH.QSSTRESC" Value="1"/>
      <ItemData ItemOID="IT.QSPH.QSSTRESN" Value="1"/>
      <ItemData ItemOID="IT.QSPH.QSLOBXFL" Value="Y"/>
      <ItemData ItemOID="IT.QSPH.VISITNUM" Value="3"/>
      <ItemData ItemOID="IT.QSPH.VISIT" Value="BASELINE"/>
      <ItemData ItemOID="IT.QSPH.EPOCH" Value="SCREENING"/>
      <ItemData ItemOID="IT.QSPH.QSDTC" Value="2012-10-22"/>
      <ItemData ItemOID="IT.QSPH.QSDY" Value="1"/>
      <ItemData ItemOID="IT.QSPH.QSEVLINT" Value="-P2W"/>
    </ItemGroupData>
    <ItemGroupData ItemGroupOID="IG.QSPH" data:ItemGroupDataSeq="113">
      <ItemData ItemOID="IT.QSPH.STUDYID" Value="CDISCPILOT01"/>
      <ItemData ItemOID="IT.QSPH.DOMAIN" Value="QS"/>
      <ItemData ItemOID="IT.QSPH.USUBJID" Value="CDISC009"/>
      <ItemData ItemOID="IT.QSPH.QSSEQ" Value="3"/>
      <ItemData ItemOID="IT.QSPH.QSTESTCD" Value="PHQ0103"/>
      <ItemData ItemOID="IT.QSPH.QSTEST" Value="PHQ01-Trouble Falling or Staying Asleep"/>
      <ItemData ItemOID="IT.QSPH.QSCAT" Value="PHQ-9"/>
      <ItemData ItemOID="IT.QSPH.QSORRES" Value="Several days"/>
      <ItemData ItemOID="IT.QSPH.QSSTRESC" Value="1"/>
      <ItemData ItemOID="IT.QSPH.QSSTRESN" Value="1"/>
      <ItemData ItemOID="IT.QSPH.QSLOBXFL" Value="Y"/>
      <ItemData ItemOID="IT.QSPH.VISITNUM" Value="3"/>
      <ItemData ItemOID="IT.QSPH.VISIT" Value="BASELINE"/>
      <ItemData ItemOID="IT.QSPH.EPOCH" Value="SCREENING"/>
      <ItemData ItemOID="IT.QSPH.QSDTC" Value="2012-10-22"/>
      <ItemData ItemOID="IT.QSPH.QSDY" Value="1"/>
      <ItemData ItemOID="IT.QSPH.QSEVLINT" Value="-P2W"/>
    </ItemGroupData>
    <ItemGroupData ItemGroupOID="IG.QSPH" data:ItemGroupDataSeq="114">
      <ItemData ItemOID="IT.QSPH.STUDYID" Value="CDISCPILOT01"/>
      <ItemData ItemOID="IT.QSPH.DOMAIN" Value="QS"/>
      <ItemData ItemOID="IT.QSPH.USUBJID" Value="CDISC009"/>
      <ItemData ItemOID="IT.QSPH.QSSEQ" Value="4"/>
      <ItemData ItemOID="IT.QSPH.QSTESTCD" Value="PHQ0104"/>
      <ItemData ItemOID="IT.QSPH.QSTEST" Value="PHQ01-Feeling Tired or Little Energy"/>
      <ItemData ItemOID="IT.QSPH.QSCAT" Value="PHQ-9"/>
      <ItemData ItemOID="IT.QSPH.QSORRES" Value="Not at all"/>
      <ItemData ItemOID="IT.QSPH.QSSTRESC" Value="0"/>
      <ItemData ItemOID="IT.QSPH.QSSTRESN" Value="0"/>
      <ItemData ItemOID="IT.QSPH.QSLOBXFL" Value="Y"/>
      <ItemData ItemOID="IT.QSPH.VISITNUM" Value="3"/>
      <ItemData ItemOID="IT.QSPH.VISIT" Value="BASELINE"/>
      <ItemData ItemOID="IT.QSPH.EPOCH" Value="SCREENING"/>
      <ItemData ItemOID="IT.QSPH.QSDTC" Value="2012-10-22"/>
      <ItemData ItemOID="IT.QSPH.QSDY" Value="1"/>
      <ItemData ItemOID="IT.QSPH.QSEVLINT" Value="-P2W"/>
    </ItemGroupData>
    <ItemGroupData ItemGroupOID="IG.QSPH" data:ItemGroupDataSeq="115">
      <ItemData ItemOID="IT.QSPH.STUDYID" Value="CDISCPILOT01"/>
      <ItemData ItemOID="IT.QSPH.DOMAIN" Value="QS"/>
      <ItemData ItemOID="IT.QSPH.USUBJID" Value="CDISC009"/>
      <ItemData ItemOID="IT.QSPH.QSSEQ" Value="5"/>
      <ItemData ItemOID="IT.QSPH.QSTESTCD" Value="PHQ0105"/>
      <ItemData ItemOID="IT.QSPH.QSTEST" Value="PHQ01-Poor Appetite or Overeating"/>
      <ItemData ItemOID="IT.QSPH.QSCAT" Value="PHQ-9"/>
      <ItemData ItemOID="IT.QSPH.QSORRES" Value="More than half the days"/>
      <ItemData ItemOID="IT.QSPH.QSSTRESC" Value="2"/>
      <ItemData ItemOID="IT.QSPH.QSSTRESN" Value="2"/>
      <ItemData ItemOID="IT.QSPH.QSLOBXFL" Value="Y"/>
      <ItemData ItemOID="IT.QSPH.VISITNUM" Value="3"/>
      <ItemData ItemOID="IT.QSPH.VISIT" Value="BASELINE"/>
      <ItemData ItemOID="IT.QSPH.EPOCH" Value="SCREENING"/>
      <ItemData ItemOID="IT.QSPH.QSDTC" Value="2012-10-22"/>
      <ItemData ItemOID="IT.QSPH.QSDY" Value="1"/>
      <ItemData ItemOID="IT.QSPH.QSEVLINT" Value="-P2W"/>
    </ItemGroupData>
    <ItemGroupData ItemGroupOID="IG.QSPH" data:ItemGroupDataSeq="116">
      <ItemData ItemOID="IT.QSPH.STUDYID" Value="CDISCPILOT01"/>
      <ItemData ItemOID="IT.QSPH.DOMAIN" Value="QS"/>
      <ItemData ItemOID="IT.QSPH.USUBJID" Value="CDISC009"/>
      <ItemData ItemOID="IT.QSPH.QSSEQ" Value="6"/>
      <ItemData ItemOID="IT.QSPH.QSTESTCD" Value="PHQ0106"/>
      <ItemData ItemOID="IT.QSPH.QSTEST" Value="PHQ01-Feeling Bad About Yourself"/>
      <ItemData ItemOID="IT.QSPH.QSCAT" Value="PHQ-9"/>
      <ItemData ItemOID="IT.QSPH.QSORRES" Value="More than half the days"/>
      <ItemData ItemOID="IT.QSPH.QSSTRESC" Value="2"/>
      <ItemData ItemOID="IT.QSPH.QSSTRESN" Value="2"/>
      <ItemData ItemOID="IT.QSPH.QSLOBXFL" Value="Y"/>
      <ItemData ItemOID="IT.QSPH.VISITNUM" Value="3"/>
      <ItemData ItemOID="IT.QSPH.VISIT" Value="BASELINE"/>
      <ItemData ItemOID="IT.QSPH.EPOCH" Value="SCREENING"/>
      <ItemData ItemOID="IT.QSPH.QSDTC" Value="2012-10-22"/>
      <ItemData ItemOID="IT.QSPH.QSDY" Value="1"/>
      <ItemData ItemOID="IT.QSPH.QSEVLINT" Value="-P2W"/>
    </ItemGroupData>
    <ItemGroupData ItemGroupOID="IG.QSPH" data:ItemGroupDataSeq="117">
      <ItemData ItemOID="IT.QSPH.STUDYID" Value="CDISCPILOT01"/>
      <ItemData ItemOID="IT.QSPH.DOMAIN" Value="QS"/>
      <ItemData ItemOID="IT.QSPH.USUBJID" Value="CDISC009"/>
      <ItemData ItemOID="IT.QSPH.QSSEQ" Value="7"/>
      <ItemData ItemOID="IT.QSPH.QSTESTCD" Value="PHQ0107"/>
      <ItemData ItemOID="IT.QSPH.QSTEST" Value="PHQ01-Trouble Concentrating on Things"/>
      <ItemData ItemOID="IT.QSPH.QSCAT" Value="PHQ-9"/>
      <ItemData ItemOID="IT.QSPH.QSORRES" Value="Several days"/>
      <ItemData ItemOID="IT.QSPH.QSSTRESC" Value="1"/>
      <ItemData ItemOID="IT.QSPH.QSSTRESN" Value="1"/>
      <ItemData ItemOID="IT.QSPH.QSLOBXFL" Value="Y"/>
      <ItemData ItemOID="IT.QSPH.VISITNUM" Value="3"/>
      <ItemData ItemOID="IT.QSPH.VISIT" Value="BASELINE"/>
      <ItemData ItemOID="IT.QSPH.EPOCH" Value="SCREENING"/>
      <ItemData ItemOID="IT.QSPH.QSDTC" Value="2012-10-22"/>
      <ItemData ItemOID="IT.QSPH.QSDY" Value="1"/>
      <ItemData ItemOID="IT.QSPH.QSEVLINT" Value="-P2W"/>
    </ItemGroupData>
    <ItemGroupData ItemGroupOID="IG.QSPH" data:ItemGroupDataSeq="118">
      <ItemData ItemOID="IT.QSPH.STUDYID" Value="CDISCPILOT01"/>
      <ItemData ItemOID="IT.QSPH.DOMAIN" Value="QS"/>
      <ItemData ItemOID="IT.QSPH.USUBJID" Value="CDISC009"/>
      <ItemData ItemOID="IT.QSPH.QSSEQ" Value="8"/>
      <ItemData ItemOID="IT.QSPH.QSTESTCD" Value="PHQ0108"/>
      <ItemData ItemOID="IT.QSPH.QSTEST" Value="PHQ01-Moving Slowly or Fidgety/Restless"/>
      <ItemData ItemOID="IT.QSPH.QSCAT" Value="PHQ-9"/>
      <ItemData ItemOID="IT.QSPH.QSORRES" Value="Several days"/>
      <ItemData ItemOID="IT.QSPH.QSSTRESC" Value="1"/>
      <ItemData ItemOID="IT.QSPH.QSSTRESN" Value="1"/>
      <ItemData ItemOID="IT.QSPH.QSLOBXFL" Value="Y"/>
      <ItemData ItemOID="IT.QSPH.VISITNUM" Value="3"/>
      <ItemData ItemOID="IT.QSPH.VISIT" Value="BASELINE"/>
      <ItemData ItemOID="IT.QSPH.EPOCH" Value="SCREENING"/>
      <ItemData ItemOID="IT.QSPH.QSDTC" Value="2012-10-22"/>
      <ItemData ItemOID="IT.QSPH.QSDY" Value="1"/>
      <ItemData ItemOID="IT.QSPH.QSEVLINT" Value="-P2W"/>
    </ItemGroupData>
    <ItemGroupData ItemGroupOID="IG.QSPH" data:ItemGroupDataSeq="119">
      <ItemData ItemOID="IT.QSPH.STUDYID" Value="CDISCPILOT01"/>
      <ItemData ItemOID="IT.QSPH.DOMAIN" Value="QS"/>
      <ItemData ItemOID="IT.QSPH.USUBJID" Value="CDISC009"/>
      <ItemData ItemOID="IT.QSPH.QSSEQ" Value="9"/>
      <ItemData ItemOID="IT.QSPH.QSTESTCD" Value="PHQ0109"/>
      <ItemData ItemOID="IT.QSPH.QSTEST" Value="PHQ01-Thoughts You Be Better Off Dead"/>
      <ItemData ItemOID="IT.QSPH.QSCAT" Value="PHQ-9"/>
      <ItemData ItemOID="IT.QSPH.QSORRES" Value="Not at all"/>
      <ItemData ItemOID="IT.QSPH.QSSTRESC" Value="0"/>
      <ItemData ItemOID="IT.QSPH.QSSTRESN" Value="0"/>
      <ItemData ItemOID="IT.QSPH.QSLOBXFL" Value="Y"/>
      <ItemData ItemOID="IT.QSPH.VISITNUM" Value="3"/>
      <ItemData ItemOID="IT.QSPH.VISIT" Value="BASELINE"/>
      <ItemData ItemOID="IT.QSPH.EPOCH" Value="SCREENING"/>
      <ItemData ItemOID="IT.QSPH.QSDTC" Value="2012-10-22"/>
      <ItemData ItemOID="IT.QSPH.QSDY" Value="1"/>
      <ItemData ItemOID="IT.QSPH.QSEVLINT" Value="-P2W"/>
    </ItemGroupData>
    <ItemGroupData ItemGroupOID="IG.QSPH" data:ItemGroupDataSeq="120">
      <ItemData ItemOID="IT.QSPH.STUDYID" Value="CDISCPILOT01"/>
      <ItemData ItemOID="IT.QSPH.DOMAIN" Value="QS"/>
      <ItemData ItemOID="IT.QSPH.USUBJID" Value="CDISC009"/>
      <ItemData ItemOID="IT.QSPH.QSSEQ" Value="10"/>
      <ItemData ItemOID="IT.QSPH.QSTESTCD" Value="PHQ0110"/>
      <ItemData ItemOID="IT.QSPH.QSTEST" Value="PHQ01-Difficult to Work/Take Care Things"/>
      <ItemData ItemOID="IT.QSPH.QSCAT" Value="PHQ-9"/>
      <ItemData ItemOID="IT.QSPH.QSORRES" Value="Somewhat difficult"/>
      <ItemData ItemOID="IT.QSPH.QSSTRESC" Value="Somewhat difficult"/>
      <ItemData ItemOID="IT.QSPH.QSLOBXFL" Value="Y"/>
      <ItemData ItemOID="IT.QSPH.VISITNUM" Value="3"/>
      <ItemData ItemOID="IT.QSPH.VISIT" Value="BASELINE"/>
      <ItemData ItemOID="IT.QSPH.EPOCH" Value="SCREENING"/>
      <ItemData ItemOID="IT.QSPH.QSDTC" Value="2012-10-22"/>
      <ItemData ItemOID="IT.QSPH.QSDY" Value="1"/>
      <ItemData ItemOID="IT.QSPH.QSEVLINT" Value="-P2W"/>
    </ItemGroupData>
    <ItemGroupData ItemGroupOID="IG.QSPH" data:ItemGroupDataSeq="121">
      <ItemData ItemOID="IT.QSPH.STUDYID" Value="CDISCPILOT01"/>
      <ItemData ItemOID="IT.QSPH.DOMAIN" Value="QS"/>
      <ItemData ItemOID="IT.QSPH.USUBJID" Value="CDISC009"/>
      <ItemData ItemOID="IT.QSPH.QSSEQ" Value="11"/>
      <ItemData ItemOID="IT.QSPH.QSTESTCD" Value="PHQ0111"/>
      <ItemData ItemOID="IT.QSPH.QSTEST" Value="PHQ01-Total Score"/>
      <ItemData ItemOID="IT.QSPH.QSCAT" Value="PHQ-9"/>
      <ItemData ItemOID="IT.QSPH.QSORRES" Value="9"/>
      <ItemData ItemOID="IT.QSPH.QSSTRESC" Value="9"/>
      <ItemData ItemOID="IT.QSPH.QSSTRESN" Value="9"/>
      <ItemData ItemOID="IT.QSPH.QSLOBXFL" Value="Y"/>
      <ItemData ItemOID="IT.QSPH.VISITNUM" Value="3"/>
      <ItemData ItemOID="IT.QSPH.VISIT" Value="BASELINE"/>
      <ItemData ItemOID="IT.QSPH.EPOCH" Value="SCREENING"/>
      <ItemData ItemOID="IT.QSPH.QSDTC" Value="2012-10-22"/>
      <ItemData ItemOID="IT.QSPH.QSDY" Value="1"/>
      <ItemData ItemOID="IT.QSPH.QSEVLINT" Value="-P2W"/>
    </ItemGroupData>
    <ItemGroupData ItemGroupOID="IG.QSPH" data:ItemGroupDataSeq="122">
      <ItemData ItemOID="IT.QSPH.STUDYID" Value="CDISCPILOT01"/>
      <ItemData ItemOID="IT.QSPH.DOMAIN" Value="QS"/>
      <ItemData ItemOID="IT.QSPH.USUBJID" Value="CDISC009"/>
      <ItemData ItemOID="IT.QSPH.QSSEQ" Value="17"/>
      <ItemData ItemOID="IT.QSPH.QSTESTCD" Value="PHQ0101"/>
      <ItemData ItemOID="IT.QSPH.QSTEST" Value="PHQ01-Little Interest/Pleasure in Things"/>
      <ItemData ItemOID="IT.QSPH.QSCAT" Value="PHQ-9"/>
      <ItemData ItemOID="IT.QSPH.QSORRES" Value="Several days"/>
      <ItemData ItemOID="IT.QSPH.QSSTRESC" Value="1"/>
      <ItemData ItemOID="IT.QSPH.QSSTRESN" Value="1"/>
      <ItemData ItemOID="IT.QSPH.VISITNUM" Value="10"/>
      <ItemData ItemOID="IT.QSPH.VISIT" Value="WEEK 16"/>
      <ItemData ItemOID="IT.QSPH.EPOCH" Value="TREATMENT"/>
      <ItemData ItemOID="IT.QSPH.QSDTC" Value="2013-02-16"/>
      <ItemData ItemOID="IT.QSPH.QSDY" Value="118"/>
      <ItemData ItemOID="IT.QSPH.QSEVLINT" Value="-P2W"/>
    </ItemGroupData>
    <ItemGroupData ItemGroupOID="IG.QSPH" data:ItemGroupDataSeq="123">
      <ItemData ItemOID="IT.QSPH.STUDYID" Value="CDISCPILOT01"/>
      <ItemData ItemOID="IT.QSPH.DOMAIN" Value="QS"/>
      <ItemData ItemOID="IT.QSPH.USUBJID" Value="CDISC009"/>
      <ItemData ItemOID="IT.QSPH.QSSEQ" Value="18"/>
      <ItemData ItemOID="IT.QSPH.QSTESTCD" Value="PHQ0102"/>
      <ItemData ItemOID="IT.QSPH.QSTEST" Value="PHQ01-Feeling Down Depressed or Hopeless"/>
      <ItemData ItemOID="IT.QSPH.QSCAT" Value="PHQ-9"/>
      <ItemData ItemOID="IT.QSPH.QSORRES" Value="Several days"/>
      <ItemData ItemOID="IT.QSPH.QSSTRESC" Value="1"/>
      <ItemData ItemOID="IT.QSPH.QSSTRESN" Value="1"/>
      <ItemData ItemOID="IT.QSPH.VISITNUM" Value="10"/>
      <ItemData ItemOID="IT.QSPH.VISIT" Value="WEEK 16"/>
      <ItemData ItemOID="IT.QSPH.EPOCH" Value="TREATMENT"/>
      <ItemData ItemOID="IT.QSPH.QSDTC" Value="2013-02-16"/>
      <ItemData ItemOID="IT.QSPH.QSDY" Value="118"/>
      <ItemData ItemOID="IT.QSPH.QSEVLINT" Value="-P2W"/>
    </ItemGroupData>
    <ItemGroupData ItemGroupOID="IG.QSPH" data:ItemGroupDataSeq="124">
      <ItemData ItemOID="IT.QSPH.STUDYID" Value="CDISCPILOT01"/>
      <ItemData ItemOID="IT.QSPH.DOMAIN" Value="QS"/>
      <ItemData ItemOID="IT.QSPH.USUBJID" Value="CDISC009"/>
      <ItemData ItemOID="IT.QSPH.QSSEQ" Value="19"/>
      <ItemData ItemOID="IT.QSPH.QSTESTCD" Value="PHQ0103"/>
      <ItemData ItemOID="IT.QSPH.QSTEST" Value="PHQ01-Trouble Falling or Staying Asleep"/>
      <ItemData ItemOID="IT.QSPH.QSCAT" Value="PHQ-9"/>
      <ItemData ItemOID="IT.QSPH.QSORRES" Value="Several days"/>
      <ItemData ItemOID="IT.QSPH.QSSTRESC" Value="1"/>
      <ItemData ItemOID="IT.QSPH.QSSTRESN" Value="1"/>
      <ItemData ItemOID="IT.QSPH.VISITNUM" Value="10"/>
      <ItemData ItemOID="IT.QSPH.VISIT" Value="WEEK 16"/>
      <ItemData ItemOID="IT.QSPH.EPOCH" Value="TREATMENT"/>
      <ItemData ItemOID="IT.QSPH.QSDTC" Value="2013-02-16"/>
      <ItemData ItemOID="IT.QSPH.QSDY" Value="118"/>
      <ItemData ItemOID="IT.QSPH.QSEVLINT" Value="-P2W"/>
    </ItemGroupData>
    <ItemGroupData ItemGroupOID="IG.QSPH" data:ItemGroupDataSeq="125">
      <ItemData ItemOID="IT.QSPH.STUDYID" Value="CDISCPILOT01"/>
      <ItemData ItemOID="IT.QSPH.DOMAIN" Value="QS"/>
      <ItemData ItemOID="IT.QSPH.USUBJID" Value="CDISC009"/>
      <ItemData ItemOID="IT.QSPH.QSSEQ" Value="20"/>
      <ItemData ItemOID="IT.QSPH.QSTESTCD" Value="PHQ0104"/>
      <ItemData ItemOID="IT.QSPH.QSTEST" Value="PHQ01-Feeling Tired or Little Energy"/>
      <ItemData ItemOID="IT.QSPH.QSCAT" Value="PHQ-9"/>
      <ItemData ItemOID="IT.QSPH.QSORRES" Value="Not at all"/>
      <ItemData ItemOID="IT.QSPH.QSSTRESC" Value="0"/>
      <ItemData ItemOID="IT.QSPH.QSSTRESN" Value="0"/>
      <ItemData ItemOID="IT.QSPH.VISITNUM" Value="10"/>
      <ItemData ItemOID="IT.QSPH.VISIT" Value="WEEK 16"/>
      <ItemData ItemOID="IT.QSPH.EPOCH" Value="TREATMENT"/>
      <ItemData ItemOID="IT.QSPH.QSDTC" Value="2013-02-16"/>
      <ItemData ItemOID="IT.QSPH.QSDY" Value="118"/>
      <ItemData ItemOID="IT.QSPH.QSEVLINT" Value="-P2W"/>
    </ItemGroupData>
    <ItemGroupData ItemGroupOID="IG.QSPH" data:ItemGroupDataSeq="126">
      <ItemData ItemOID="IT.QSPH.STUDYID" Value="CDISCPILOT01"/>
      <ItemData ItemOID="IT.QSPH.DOMAIN" Value="QS"/>
      <ItemData ItemOID="IT.QSPH.USUBJID" Value="CDISC009"/>
      <ItemData ItemOID="IT.QSPH.QSSEQ" Value="21"/>
      <ItemData ItemOID="IT.QSPH.QSTESTCD" Value="PHQ0105"/>
      <ItemData ItemOID="IT.QSPH.QSTEST" Value="PHQ01-Poor Appetite or Overeating"/>
      <ItemData ItemOID="IT.QSPH.QSCAT" Value="PHQ-9"/>
      <ItemData ItemOID="IT.QSPH.QSORRES" Value="Several days"/>
      <ItemData ItemOID="IT.QSPH.QSSTRESC" Value="1"/>
      <ItemData ItemOID="IT.QSPH.QSSTRESN" Value="1"/>
      <ItemData ItemOID="IT.QSPH.VISITNUM" Value="10"/>
      <ItemData ItemOID="IT.QSPH.VISIT" Value="WEEK 16"/>
      <ItemData ItemOID="IT.QSPH.EPOCH" Value="TREATMENT"/>
      <ItemData ItemOID="IT.QSPH.QSDTC" Value="2013-02-16"/>
      <ItemData ItemOID="IT.QSPH.QSDY" Value="118"/>
      <ItemData ItemOID="IT.QSPH.QSEVLINT" Value="-P2W"/>
    </ItemGroupData>
    <ItemGroupData ItemGroupOID="IG.QSPH" data:ItemGroupDataSeq="127">
      <ItemData ItemOID="IT.QSPH.STUDYID" Value="CDISCPILOT01"/>
      <ItemData ItemOID="IT.QSPH.DOMAIN" Value="QS"/>
      <ItemData ItemOID="IT.QSPH.USUBJID" Value="CDISC009"/>
      <ItemData ItemOID="IT.QSPH.QSSEQ" Value="22"/>
      <ItemData ItemOID="IT.QSPH.QSTESTCD" Value="PHQ0106"/>
      <ItemData ItemOID="IT.QSPH.QSTEST" Value="PHQ01-Feeling Bad About Yourself"/>
      <ItemData ItemOID="IT.QSPH.QSCAT" Value="PHQ-9"/>
      <ItemData ItemOID="IT.QSPH.QSORRES" Value="More than half the days"/>
      <ItemData ItemOID="IT.QSPH.QSSTRESC" Value="2"/>
      <ItemData ItemOID="IT.QSPH.QSSTRESN" Value="2"/>
      <ItemData ItemOID="IT.QSPH.VISITNUM" Value="10"/>
      <ItemData ItemOID="IT.QSPH.VISIT" Value="WEEK 16"/>
      <ItemData ItemOID="IT.QSPH.EPOCH" Value="TREATMENT"/>
      <ItemData ItemOID="IT.QSPH.QSDTC" Value="2013-02-16"/>
      <ItemData ItemOID="IT.QSPH.QSDY" Value="118"/>
      <ItemData ItemOID="IT.QSPH.QSEVLINT" Value="-P2W"/>
    </ItemGroupData>
    <ItemGroupData ItemGroupOID="IG.QSPH" data:ItemGroupDataSeq="128">
      <ItemData ItemOID="IT.QSPH.STUDYID" Value="CDISCPILOT01"/>
      <ItemData ItemOID="IT.QSPH.DOMAIN" Value="QS"/>
      <ItemData ItemOID="IT.QSPH.USUBJID" Value="CDISC009"/>
      <ItemData ItemOID="IT.QSPH.QSSEQ" Value="23"/>
      <ItemData ItemOID="IT.QSPH.QSTESTCD" Value="PHQ0107"/>
      <ItemData ItemOID="IT.QSPH.QSTEST" Value="PHQ01-Trouble Concentrating on Things"/>
      <ItemData ItemOID="IT.QSPH.QSCAT" Value="PHQ-9"/>
      <ItemData ItemOID="IT.QSPH.QSORRES" Value="Several days"/>
      <ItemData ItemOID="IT.QSPH.QSSTRESC" Value="1"/>
      <ItemData ItemOID="IT.QSPH.QSSTRESN" Value="1"/>
      <ItemData ItemOID="IT.QSPH.VISITNUM" Value="10"/>
      <ItemData ItemOID="IT.QSPH.VISIT" Value="WEEK 16"/>
      <ItemData ItemOID="IT.QSPH.EPOCH" Value="TREATMENT"/>
      <ItemData ItemOID="IT.QSPH.QSDTC" Value="2013-02-16"/>
      <ItemData ItemOID="IT.QSPH.QSDY" Value="118"/>
      <ItemData ItemOID="IT.QSPH.QSEVLINT" Value="-P2W"/>
    </ItemGroupData>
    <ItemGroupData ItemGroupOID="IG.QSPH" data:ItemGroupDataSeq="129">
      <ItemData ItemOID="IT.QSPH.STUDYID" Value="CDISCPILOT01"/>
      <ItemData ItemOID="IT.QSPH.DOMAIN" Value="QS"/>
      <ItemData ItemOID="IT.QSPH.USUBJID" Value="CDISC009"/>
      <ItemData ItemOID="IT.QSPH.QSSEQ" Value="24"/>
      <ItemData ItemOID="IT.QSPH.QSTESTCD" Value="PHQ0108"/>
      <ItemData ItemOID="IT.QSPH.QSTEST" Value="PHQ01-Moving Slowly or Fidgety/Restless"/>
      <ItemData ItemOID="IT.QSPH.QSCAT" Value="PHQ-9"/>
      <ItemData ItemOID="IT.QSPH.QSORRES" Value="Several days"/>
      <ItemData ItemOID="IT.QSPH.QSSTRESC" Value="1"/>
      <ItemData ItemOID="IT.QSPH.QSSTRESN" Value="1"/>
      <ItemData ItemOID="IT.QSPH.VISITNUM" Value="10"/>
      <ItemData ItemOID="IT.QSPH.VISIT" Value="WEEK 16"/>
      <ItemData ItemOID="IT.QSPH.EPOCH" Value="TREATMENT"/>
      <ItemData ItemOID="IT.QSPH.QSDTC" Value="2013-02-16"/>
      <ItemData ItemOID="IT.QSPH.QSDY" Value="118"/>
      <ItemData ItemOID="IT.QSPH.QSEVLINT" Value="-P2W"/>
    </ItemGroupData>
    <ItemGroupData ItemGroupOID="IG.QSPH" data:ItemGroupDataSeq="130">
      <ItemData ItemOID="IT.QSPH.STUDYID" Value="CDISCPILOT01"/>
      <ItemData ItemOID="IT.QSPH.DOMAIN" Value="QS"/>
      <ItemData ItemOID="IT.QSPH.USUBJID" Value="CDISC009"/>
      <ItemData ItemOID="IT.QSPH.QSSEQ" Value="25"/>
      <ItemData ItemOID="IT.QSPH.QSTESTCD" Value="PHQ0109"/>
      <ItemData ItemOID="IT.QSPH.QSTEST" Value="PHQ01-Thoughts You Be Better Off Dead"/>
      <ItemData ItemOID="IT.QSPH.QSCAT" Value="PHQ-9"/>
      <ItemData ItemOID="IT.QSPH.QSORRES" Value="Not at all"/>
      <ItemData ItemOID="IT.QSPH.QSSTRESC" Value="0"/>
      <ItemData ItemOID="IT.QSPH.QSSTRESN" Value="0"/>
      <ItemData ItemOID="IT.QSPH.VISITNUM" Value="10"/>
      <ItemData ItemOID="IT.QSPH.VISIT" Value="WEEK 16"/>
      <ItemData ItemOID="IT.QSPH.EPOCH" Value="TREATMENT"/>
      <ItemData ItemOID="IT.QSPH.QSDTC" Value="2013-02-16"/>
      <ItemData ItemOID="IT.QSPH.QSDY" Value="118"/>
      <ItemData ItemOID="IT.QSPH.QSEVLINT" Value="-P2W"/>
    </ItemGroupData>
    <ItemGroupData ItemGroupOID="IG.QSPH" data:ItemGroupDataSeq="131">
      <ItemData ItemOID="IT.QSPH.STUDYID" Value="CDISCPILOT01"/>
      <ItemData ItemOID="IT.QSPH.DOMAIN" Value="QS"/>
      <ItemData ItemOID="IT.QSPH.USUBJID" Value="CDISC009"/>
      <ItemData ItemOID="IT.QSPH.QSSEQ" Value="26"/>
      <ItemData ItemOID="IT.QSPH.QSTESTCD" Value="PHQ0110"/>
      <ItemData ItemOID="IT.QSPH.QSTEST" Value="PHQ01-Difficult to Work/Take Care Things"/>
      <ItemData ItemOID="IT.QSPH.QSCAT" Value="PHQ-9"/>
      <ItemData ItemOID="IT.QSPH.QSORRES" Value="Somewhat difficult"/>
      <ItemData ItemOID="IT.QSPH.QSSTRESC" Value="Somewhat difficult"/>
      <ItemData ItemOID="IT.QSPH.VISITNUM" Value="10"/>
      <ItemData ItemOID="IT.QSPH.VISIT" Value="WEEK 16"/>
      <ItemData ItemOID="IT.QSPH.EPOCH" Value="TREATMENT"/>
      <ItemData ItemOID="IT.QSPH.QSDTC" Value="2013-02-16"/>
      <ItemData ItemOID="IT.QSPH.QSDY" Value="118"/>
      <ItemData ItemOID="IT.QSPH.QSEVLINT" Value="-P2W"/>
    </ItemGroupData>
    <ItemGroupData ItemGroupOID="IG.QSPH" data:ItemGroupDataSeq="132">
      <ItemData ItemOID="IT.QSPH.STUDYID" Value="CDISCPILOT01"/>
      <ItemData ItemOID="IT.QSPH.DOMAIN" Value="QS"/>
      <ItemData ItemOID="IT.QSPH.USUBJID" Value="CDISC009"/>
      <ItemData ItemOID="IT.QSPH.QSSEQ" Value="27"/>
      <ItemData ItemOID="IT.QSPH.QSTESTCD" Value="PHQ0111"/>
      <ItemData ItemOID="IT.QSPH.QSTEST" Value="PHQ01-Total Score"/>
      <ItemData ItemOID="IT.QSPH.QSCAT" Value="PHQ-9"/>
      <ItemData ItemOID="IT.QSPH.QSORRES" Value="8"/>
      <ItemData ItemOID="IT.QSPH.QSSTRESC" Value="8"/>
      <ItemData ItemOID="IT.QSPH.QSSTRESN" Value="8"/>
      <ItemData ItemOID="IT.QSPH.VISITNUM" Value="10"/>
      <ItemData ItemOID="IT.QSPH.VISIT" Value="WEEK 16"/>
      <ItemData ItemOID="IT.QSPH.EPOCH" Value="TREATMENT"/>
      <ItemData ItemOID="IT.QSPH.QSDTC" Value="2013-02-16"/>
      <ItemData ItemOID="IT.QSPH.QSDY" Value="118"/>
      <ItemData ItemOID="IT.QSPH.QSEVLINT" Value="-P2W"/>
    </ItemGroupData>
    <ItemGroupData ItemGroupOID="IG.QSPH" data:ItemGroupDataSeq="133">
      <ItemData ItemOID="IT.QSPH.STUDYID" Value="CDISCPILOT01"/>
      <ItemData ItemOID="IT.QSPH.DOMAIN" Value="QS"/>
      <ItemData ItemOID="IT.QSPH.USUBJID" Value="CDISC009"/>
      <ItemData ItemOID="IT.QSPH.QSSEQ" Value="33"/>
      <ItemData ItemOID="IT.QSPH.QSTESTCD" Value="PHQ0101"/>
      <ItemData ItemOID="IT.QSPH.QSTEST" Value="PHQ01-Little Interest/Pleasure in Things"/>
      <ItemData ItemOID="IT.QSPH.QSCAT" Value="PHQ-9"/>
      <ItemData ItemOID="IT.QSPH.QSORRES" Value="Several days"/>
      <ItemData ItemOID="IT.QSPH.QSSTRESC" Value="1"/>
      <ItemData ItemOID="IT.QSPH.QSSTRESN" Value="1"/>
      <ItemData ItemOID="IT.QSPH.VISITNUM" Value="12"/>
      <ItemData ItemOID="IT.QSPH.VISIT" Value="WEEK 24"/>
      <ItemData ItemOID="IT.QSPH.EPOCH" Value="TREATMENT"/>
      <ItemData ItemOID="IT.QSPH.QSDTC" Value="2013-04-10"/>
      <ItemData ItemOID="IT.QSPH.QSDY" Value="171"/>
      <ItemData ItemOID="IT.QSPH.QSEVLINT" Value="-P2W"/>
    </ItemGroupData>
    <ItemGroupData ItemGroupOID="IG.QSPH" data:ItemGroupDataSeq="134">
      <ItemData ItemOID="IT.QSPH.STUDYID" Value="CDISCPILOT01"/>
      <ItemData ItemOID="IT.QSPH.DOMAIN" Value="QS"/>
      <ItemData ItemOID="IT.QSPH.USUBJID" Value="CDISC009"/>
      <ItemData ItemOID="IT.QSPH.QSSEQ" Value="34"/>
      <ItemData ItemOID="IT.QSPH.QSTESTCD" Value="PHQ0102"/>
      <ItemData ItemOID="IT.QSPH.QSTEST" Value="PHQ01-Feeling Down Depressed or Hopeless"/>
      <ItemData ItemOID="IT.QSPH.QSCAT" Value="PHQ-9"/>
      <ItemData ItemOID="IT.QSPH.QSORRES" Value="Several days"/>
      <ItemData ItemOID="IT.QSPH.QSSTRESC" Value="1"/>
      <ItemData ItemOID="IT.QSPH.QSSTRESN" Value="1"/>
      <ItemData ItemOID="IT.QSPH.VISITNUM" Value="12"/>
      <ItemData ItemOID="IT.QSPH.VISIT" Value="WEEK 24"/>
      <ItemData ItemOID="IT.QSPH.EPOCH" Value="TREATMENT"/>
      <ItemData ItemOID="IT.QSPH.QSDTC" Value="2013-04-10"/>
      <ItemData ItemOID="IT.QSPH.QSDY" Value="171"/>
      <ItemData ItemOID="IT.QSPH.QSEVLINT" Value="-P2W"/>
    </ItemGroupData>
    <ItemGroupData ItemGroupOID="IG.QSPH" data:ItemGroupDataSeq="135">
      <ItemData ItemOID="IT.QSPH.STUDYID" Value="CDISCPILOT01"/>
      <ItemData ItemOID="IT.QSPH.DOMAIN" Value="QS"/>
      <ItemData ItemOID="IT.QSPH.USUBJID" Value="CDISC009"/>
      <ItemData ItemOID="IT.QSPH.QSSEQ" Value="35"/>
      <ItemData ItemOID="IT.QSPH.QSTESTCD" Value="PHQ0103"/>
      <ItemData ItemOID="IT.QSPH.QSTEST" Value="PHQ01-Trouble Falling or Staying Asleep"/>
      <ItemData ItemOID="IT.QSPH.QSCAT" Value="PHQ-9"/>
      <ItemData ItemOID="IT.QSPH.QSORRES" Value="Several days"/>
      <ItemData ItemOID="IT.QSPH.QSSTRESC" Value="1"/>
      <ItemData ItemOID="IT.QSPH.QSSTRESN" Value="1"/>
      <ItemData ItemOID="IT.QSPH.VISITNUM" Value="12"/>
      <ItemData ItemOID="IT.QSPH.VISIT" Value="WEEK 24"/>
      <ItemData ItemOID="IT.QSPH.EPOCH" Value="TREATMENT"/>
      <ItemData ItemOID="IT.QSPH.QSDTC" Value="2013-04-10"/>
      <ItemData ItemOID="IT.QSPH.QSDY" Value="171"/>
      <ItemData ItemOID="IT.QSPH.QSEVLINT" Value="-P2W"/>
    </ItemGroupData>
    <ItemGroupData ItemGroupOID="IG.QSPH" data:ItemGroupDataSeq="136">
      <ItemData ItemOID="IT.QSPH.STUDYID" Value="CDISCPILOT01"/>
      <ItemData ItemOID="IT.QSPH.DOMAIN" Value="QS"/>
      <ItemData ItemOID="IT.QSPH.USUBJID" Value="CDISC009"/>
      <ItemData ItemOID="IT.QSPH.QSSEQ" Value="36"/>
      <ItemData ItemOID="IT.QSPH.QSTESTCD" Value="PHQ0104"/>
      <ItemData ItemOID="IT.QSPH.QSTEST" Value="PHQ01-Feeling Tired or Little Energy"/>
      <ItemData ItemOID="IT.QSPH.QSCAT" Value="PHQ-9"/>
      <ItemData ItemOID="IT.QSPH.QSORRES" Value="Not at all"/>
      <ItemData ItemOID="IT.QSPH.QSSTRESC" Value="0"/>
      <ItemData ItemOID="IT.QSPH.QSSTRESN" Value="0"/>
      <ItemData ItemOID="IT.QSPH.VISITNUM" Value="12"/>
      <ItemData ItemOID="IT.QSPH.VISIT" Value="WEEK 24"/>
      <ItemData ItemOID="IT.QSPH.EPOCH" Value="TREATMENT"/>
      <ItemData ItemOID="IT.QSPH.QSDTC" Value="2013-04-10"/>
      <ItemData ItemOID="IT.QSPH.QSDY" Value="171"/>
      <ItemData ItemOID="IT.QSPH.QSEVLINT" Value="-P2W"/>
    </ItemGroupData>
    <ItemGroupData ItemGroupOID="IG.QSPH" data:ItemGroupDataSeq="137">
      <ItemData ItemOID="IT.QSPH.STUDYID" Value="CDISCPILOT01"/>
      <ItemData ItemOID="IT.QSPH.DOMAIN" Value="QS"/>
      <ItemData ItemOID="IT.QSPH.USUBJID" Value="CDISC009"/>
      <ItemData ItemOID="IT.QSPH.QSSEQ" Value="37"/>
      <ItemData ItemOID="IT.QSPH.QSTESTCD" Value="PHQ0105"/>
      <ItemData ItemOID="IT.QSPH.QSTEST" Value="PHQ01-Poor Appetite or Overeating"/>
      <ItemData ItemOID="IT.QSPH.QSCAT" Value="PHQ-9"/>
      <ItemData ItemOID="IT.QSPH.QSORRES" Value="Several days"/>
      <ItemData ItemOID="IT.QSPH.QSSTRESC" Value="1"/>
      <ItemData ItemOID="IT.QSPH.QSSTRESN" Value="1"/>
      <ItemData ItemOID="IT.QSPH.VISITNUM" Value="12"/>
      <ItemData ItemOID="IT.QSPH.VISIT" Value="WEEK 24"/>
      <ItemData ItemOID="IT.QSPH.EPOCH" Value="TREATMENT"/>
      <ItemData ItemOID="IT.QSPH.QSDTC" Value="2013-04-10"/>
      <ItemData ItemOID="IT.QSPH.QSDY" Value="171"/>
      <ItemData ItemOID="IT.QSPH.QSEVLINT" Value="-P2W"/>
    </ItemGroupData>
    <ItemGroupData ItemGroupOID="IG.QSPH" data:ItemGroupDataSeq="138">
      <ItemData ItemOID="IT.QSPH.STUDYID" Value="CDISCPILOT01"/>
      <ItemData ItemOID="IT.QSPH.DOMAIN" Value="QS"/>
      <ItemData ItemOID="IT.QSPH.USUBJID" Value="CDISC009"/>
      <ItemData ItemOID="IT.QSPH.QSSEQ" Value="38"/>
      <ItemData ItemOID="IT.QSPH.QSTESTCD" Value="PHQ0106"/>
      <ItemData ItemOID="IT.QSPH.QSTEST" Value="PHQ01-Feeling Bad About Yourself"/>
      <ItemData ItemOID="IT.QSPH.QSCAT" Value="PHQ-9"/>
      <ItemData ItemOID="IT.QSPH.QSORRES" Value="More than half the days"/>
      <ItemData ItemOID="IT.QSPH.QSSTRESC" Value="2"/>
      <ItemData ItemOID="IT.QSPH.QSSTRESN" Value="2"/>
      <ItemData ItemOID="IT.QSPH.VISITNUM" Value="12"/>
      <ItemData ItemOID="IT.QSPH.VISIT" Value="WEEK 24"/>
      <ItemData ItemOID="IT.QSPH.EPOCH" Value="TREATMENT"/>
      <ItemData ItemOID="IT.QSPH.QSDTC" Value="2013-04-10"/>
      <ItemData ItemOID="IT.QSPH.QSDY" Value="171"/>
      <ItemData ItemOID="IT.QSPH.QSEVLINT" Value="-P2W"/>
    </ItemGroupData>
    <ItemGroupData ItemGroupOID="IG.QSPH" data:ItemGroupDataSeq="139">
      <ItemData ItemOID="IT.QSPH.STUDYID" Value="CDISCPILOT01"/>
      <ItemData ItemOID="IT.QSPH.DOMAIN" Value="QS"/>
      <ItemData ItemOID="IT.QSPH.USUBJID" Value="CDISC009"/>
      <ItemData ItemOID="IT.QSPH.QSSEQ" Value="39"/>
      <ItemData ItemOID="IT.QSPH.QSTESTCD" Value="PHQ0107"/>
      <ItemData ItemOID="IT.QSPH.QSTEST" Value="PHQ01-Trouble Concentrating on Things"/>
      <ItemData ItemOID="IT.QSPH.QSCAT" Value="PHQ-9"/>
      <ItemData ItemOID="IT.QSPH.QSORRES" Value="Several days"/>
      <ItemData ItemOID="IT.QSPH.QSSTRESC" Value="1"/>
      <ItemData ItemOID="IT.QSPH.QSSTRESN" Value="1"/>
      <ItemData ItemOID="IT.QSPH.VISITNUM" Value="12"/>
      <ItemData ItemOID="IT.QSPH.VISIT" Value="WEEK 24"/>
      <ItemData ItemOID="IT.QSPH.EPOCH" Value="TREATMENT"/>
      <ItemData ItemOID="IT.QSPH.QSDTC" Value="2013-04-10"/>
      <ItemData ItemOID="IT.QSPH.QSDY" Value="171"/>
      <ItemData ItemOID="IT.QSPH.QSEVLINT" Value="-P2W"/>
    </ItemGroupData>
    <ItemGroupData ItemGroupOID="IG.QSPH" data:ItemGroupDataSeq="140">
      <ItemData ItemOID="IT.QSPH.STUDYID" Value="CDISCPILOT01"/>
      <ItemData ItemOID="IT.QSPH.DOMAIN" Value="QS"/>
      <ItemData ItemOID="IT.QSPH.USUBJID" Value="CDISC009"/>
      <ItemData ItemOID="IT.QSPH.QSSEQ" Value="40"/>
      <ItemData ItemOID="IT.QSPH.QSTESTCD" Value="PHQ0108"/>
      <ItemData ItemOID="IT.QSPH.QSTEST" Value="PHQ01-Moving Slowly or Fidgety/Restless"/>
      <ItemData ItemOID="IT.QSPH.QSCAT" Value="PHQ-9"/>
      <ItemData ItemOID="IT.QSPH.QSORRES" Value="Several days"/>
      <ItemData ItemOID="IT.QSPH.QSSTRESC" Value="1"/>
      <ItemData ItemOID="IT.QSPH.QSSTRESN" Value="1"/>
      <ItemData ItemOID="IT.QSPH.VISITNUM" Value="12"/>
      <ItemData ItemOID="IT.QSPH.VISIT" Value="WEEK 24"/>
      <ItemData ItemOID="IT.QSPH.EPOCH" Value="TREATMENT"/>
      <ItemData ItemOID="IT.QSPH.QSDTC" Value="2013-04-10"/>
      <ItemData ItemOID="IT.QSPH.QSDY" Value="171"/>
      <ItemData ItemOID="IT.QSPH.QSEVLINT" Value="-P2W"/>
    </ItemGroupData>
    <ItemGroupData ItemGroupOID="IG.QSPH" data:ItemGroupDataSeq="141">
      <ItemData ItemOID="IT.QSPH.STUDYID" Value="CDISCPILOT01"/>
      <ItemData ItemOID="IT.QSPH.DOMAIN" Value="QS"/>
      <ItemData ItemOID="IT.QSPH.USUBJID" Value="CDISC009"/>
      <ItemData ItemOID="IT.QSPH.QSSEQ" Value="41"/>
      <ItemData ItemOID="IT.QSPH.QSTESTCD" Value="PHQ0109"/>
      <ItemData ItemOID="IT.QSPH.QSTEST" Value="PHQ01-Thoughts You Be Better Off Dead"/>
      <ItemData ItemOID="IT.QSPH.QSCAT" Value="PHQ-9"/>
      <ItemData ItemOID="IT.QSPH.QSORRES" Value="Not at all"/>
      <ItemData ItemOID="IT.QSPH.QSSTRESC" Value="0"/>
      <ItemData ItemOID="IT.QSPH.QSSTRESN" Value="0"/>
      <ItemData ItemOID="IT.QSPH.VISITNUM" Value="12"/>
      <ItemData ItemOID="IT.QSPH.VISIT" Value="WEEK 24"/>
      <ItemData ItemOID="IT.QSPH.EPOCH" Value="TREATMENT"/>
      <ItemData ItemOID="IT.QSPH.QSDTC" Value="2013-04-10"/>
      <ItemData ItemOID="IT.QSPH.QSDY" Value="171"/>
      <ItemData ItemOID="IT.QSPH.QSEVLINT" Value="-P2W"/>
    </ItemGroupData>
    <ItemGroupData ItemGroupOID="IG.QSPH" data:ItemGroupDataSeq="142">
      <ItemData ItemOID="IT.QSPH.STUDYID" Value="CDISCPILOT01"/>
      <ItemData ItemOID="IT.QSPH.DOMAIN" Value="QS"/>
      <ItemData ItemOID="IT.QSPH.USUBJID" Value="CDISC009"/>
      <ItemData ItemOID="IT.QSPH.QSSEQ" Value="42"/>
      <ItemData ItemOID="IT.QSPH.QSTESTCD" Value="PHQ0110"/>
      <ItemData ItemOID="IT.QSPH.QSTEST" Value="PHQ01-Difficult to Work/Take Care Things"/>
      <ItemData ItemOID="IT.QSPH.QSCAT" Value="PHQ-9"/>
      <ItemData ItemOID="IT.QSPH.QSORRES" Value="Not difficult at all"/>
      <ItemData ItemOID="IT.QSPH.QSSTRESC" Value="Not difficult at all"/>
      <ItemData ItemOID="IT.QSPH.VISITNUM" Value="12"/>
      <ItemData ItemOID="IT.QSPH.VISIT" Value="WEEK 24"/>
      <ItemData ItemOID="IT.QSPH.EPOCH" Value="TREATMENT"/>
      <ItemData ItemOID="IT.QSPH.QSDTC" Value="2013-04-10"/>
      <ItemData ItemOID="IT.QSPH.QSDY" Value="171"/>
      <ItemData ItemOID="IT.QSPH.QSEVLINT" Value="-P2W"/>
    </ItemGroupData>
    <ItemGroupData ItemGroupOID="IG.QSPH" data:ItemGroupDataSeq="143">
      <ItemData ItemOID="IT.QSPH.STUDYID" Value="CDISCPILOT01"/>
      <ItemData ItemOID="IT.QSPH.DOMAIN" Value="QS"/>
      <ItemData ItemOID="IT.QSPH.USUBJID" Value="CDISC009"/>
      <ItemData ItemOID="IT.QSPH.QSSEQ" Value="43"/>
      <ItemData ItemOID="IT.QSPH.QSTESTCD" Value="PHQ0111"/>
      <ItemData ItemOID="IT.QSPH.QSTEST" Value="PHQ01-Total Score"/>
      <ItemData ItemOID="IT.QSPH.QSCAT" Value="PHQ-9"/>
      <ItemData ItemOID="IT.QSPH.QSORRES" Value="8"/>
      <ItemData ItemOID="IT.QSPH.QSSTRESC" Value="8"/>
      <ItemData ItemOID="IT.QSPH.QSSTRESN" Value="8"/>
      <ItemData ItemOID="IT.QSPH.VISITNUM" Value="12"/>
      <ItemData ItemOID="IT.QSPH.VISIT" Value="WEEK 24"/>
      <ItemData ItemOID="IT.QSPH.EPOCH" Value="TREATMENT"/>
      <ItemData ItemOID="IT.QSPH.QSDTC" Value="2013-04-10"/>
      <ItemData ItemOID="IT.QSPH.QSDY" Value="171"/>
      <ItemData ItemOID="IT.QSPH.QSEVLINT" Value="-P2W"/>
    </ItemGroupData>
    <ItemGroupData ItemGroupOID="IG.QSPH" data:ItemGroupDataSeq="144">
      <ItemData ItemOID="IT.QSPH.STUDYID" Value="CDISCPILOT01"/>
      <ItemData ItemOID="IT.QSPH.DOMAIN" Value="QS"/>
      <ItemData ItemOID="IT.QSPH.USUBJID" Value="CDISC011"/>
      <ItemData ItemOID="IT.QSPH.QSSEQ" Value="1"/>
      <ItemData ItemOID="IT.QSPH.QSTESTCD" Value="PHQ0101"/>
      <ItemData ItemOID="IT.QSPH.QSTEST" Value="PHQ01-Little Interest/Pleasure in Things"/>
      <ItemData ItemOID="IT.QSPH.QSCAT" Value="PHQ-9"/>
      <ItemData ItemOID="IT.QSPH.QSORRES" Value="More than half the days"/>
      <ItemData ItemOID="IT.QSPH.QSSTRESC" Value="2"/>
      <ItemData ItemOID="IT.QSPH.QSSTRESN" Value="2"/>
      <ItemData ItemOID="IT.QSPH.VISITNUM" Value="3"/>
      <ItemData ItemOID="IT.QSPH.VISIT" Value="BASELINE"/>
      <ItemData ItemOID="IT.QSPH.EPOCH" Value="SCREENING"/>
      <ItemData ItemOID="IT.QSPH.QSDTC" Value="2012-12-07"/>
      <ItemData ItemOID="IT.QSPH.QSDY" Value="1"/>
      <ItemData ItemOID="IT.QSPH.QSEVLINT" Value="-P2W"/>
    </ItemGroupData>
    <ItemGroupData ItemGroupOID="IG.QSPH" data:ItemGroupDataSeq="145">
      <ItemData ItemOID="IT.QSPH.STUDYID" Value="CDISCPILOT01"/>
      <ItemData ItemOID="IT.QSPH.DOMAIN" Value="QS"/>
      <ItemData ItemOID="IT.QSPH.USUBJID" Value="CDISC011"/>
      <ItemData ItemOID="IT.QSPH.QSSEQ" Value="2"/>
      <ItemData ItemOID="IT.QSPH.QSTESTCD" Value="PHQ0102"/>
      <ItemData ItemOID="IT.QSPH.QSTEST" Value="PHQ01-Feeling Down Depressed or Hopeless"/>
      <ItemData ItemOID="IT.QSPH.QSCAT" Value="PHQ-9"/>
      <ItemData ItemOID="IT.QSPH.QSORRES" Value="More than half the days"/>
      <ItemData ItemOID="IT.QSPH.QSSTRESC" Value="2"/>
      <ItemData ItemOID="IT.QSPH.QSSTRESN" Value="2"/>
      <ItemData ItemOID="IT.QSPH.VISITNUM" Value="3"/>
      <ItemData ItemOID="IT.QSPH.VISIT" Value="BASELINE"/>
      <ItemData ItemOID="IT.QSPH.EPOCH" Value="SCREENING"/>
      <ItemData ItemOID="IT.QSPH.QSDTC" Value="2012-12-07"/>
      <ItemData ItemOID="IT.QSPH.QSDY" Value="1"/>
      <ItemData ItemOID="IT.QSPH.QSEVLINT" Value="-P2W"/>
    </ItemGroupData>
    <ItemGroupData ItemGroupOID="IG.QSPH" data:ItemGroupDataSeq="146">
      <ItemData ItemOID="IT.QSPH.STUDYID" Value="CDISCPILOT01"/>
      <ItemData ItemOID="IT.QSPH.DOMAIN" Value="QS"/>
      <ItemData ItemOID="IT.QSPH.USUBJID" Value="CDISC011"/>
      <ItemData ItemOID="IT.QSPH.QSSEQ" Value="3"/>
      <ItemData ItemOID="IT.QSPH.QSTESTCD" Value="PHQ0103"/>
      <ItemData ItemOID="IT.QSPH.QSTEST" Value="PHQ01-Trouble Falling or Staying Asleep"/>
      <ItemData ItemOID="IT.QSPH.QSCAT" Value="PHQ-9"/>
      <ItemData ItemOID="IT.QSPH.QSORRES" Value="Nearly every day"/>
      <ItemData ItemOID="IT.QSPH.QSSTRESC" Value="3"/>
      <ItemData ItemOID="IT.QSPH.QSSTRESN" Value="3"/>
      <ItemData ItemOID="IT.QSPH.VISITNUM" Value="3"/>
      <ItemData ItemOID="IT.QSPH.VISIT" Value="BASELINE"/>
      <ItemData ItemOID="IT.QSPH.EPOCH" Value="SCREENING"/>
      <ItemData ItemOID="IT.QSPH.QSDTC" Value="2012-12-07"/>
      <ItemData ItemOID="IT.QSPH.QSDY" Value="1"/>
      <ItemData ItemOID="IT.QSPH.QSEVLINT" Value="-P2W"/>
    </ItemGroupData>
    <ItemGroupData ItemGroupOID="IG.QSPH" data:ItemGroupDataSeq="147">
      <ItemData ItemOID="IT.QSPH.STUDYID" Value="CDISCPILOT01"/>
      <ItemData ItemOID="IT.QSPH.DOMAIN" Value="QS"/>
      <ItemData ItemOID="IT.QSPH.USUBJID" Value="CDISC011"/>
      <ItemData ItemOID="IT.QSPH.QSSEQ" Value="4"/>
      <ItemData ItemOID="IT.QSPH.QSTESTCD" Value="PHQ0104"/>
      <ItemData ItemOID="IT.QSPH.QSTEST" Value="PHQ01-Feeling Tired or Little Energy"/>
      <ItemData ItemOID="IT.QSPH.QSCAT" Value="PHQ-9"/>
      <ItemData ItemOID="IT.QSPH.QSORRES" Value="More than half the days"/>
      <ItemData ItemOID="IT.QSPH.QSSTRESC" Value="2"/>
      <ItemData ItemOID="IT.QSPH.QSSTRESN" Value="2"/>
      <ItemData ItemOID="IT.QSPH.VISITNUM" Value="3"/>
      <ItemData ItemOID="IT.QSPH.VISIT" Value="BASELINE"/>
      <ItemData ItemOID="IT.QSPH.EPOCH" Value="SCREENING"/>
      <ItemData ItemOID="IT.QSPH.QSDTC" Value="2012-12-07"/>
      <ItemData ItemOID="IT.QSPH.QSDY" Value="1"/>
      <ItemData ItemOID="IT.QSPH.QSEVLINT" Value="-P2W"/>
    </ItemGroupData>
    <ItemGroupData ItemGroupOID="IG.QSPH" data:ItemGroupDataSeq="148">
      <ItemData ItemOID="IT.QSPH.STUDYID" Value="CDISCPILOT01"/>
      <ItemData ItemOID="IT.QSPH.DOMAIN" Value="QS"/>
      <ItemData ItemOID="IT.QSPH.USUBJID" Value="CDISC011"/>
      <ItemData ItemOID="IT.QSPH.QSSEQ" Value="5"/>
      <ItemData ItemOID="IT.QSPH.QSTESTCD" Value="PHQ0105"/>
      <ItemData ItemOID="IT.QSPH.QSTEST" Value="PHQ01-Poor Appetite or Overeating"/>
      <ItemData ItemOID="IT.QSPH.QSCAT" Value="PHQ-9"/>
      <ItemData ItemOID="IT.QSPH.QSORRES" Value="More than half the days"/>
      <ItemData ItemOID="IT.QSPH.QSSTRESC" Value="2"/>
      <ItemData ItemOID="IT.QSPH.QSSTRESN" Value="2"/>
      <ItemData ItemOID="IT.QSPH.VISITNUM" Value="3"/>
      <ItemData ItemOID="IT.QSPH.VISIT" Value="BASELINE"/>
      <ItemData ItemOID="IT.QSPH.EPOCH" Value="SCREENING"/>
      <ItemData ItemOID="IT.QSPH.QSDTC" Value="2012-12-07"/>
      <ItemData ItemOID="IT.QSPH.QSDY" Value="1"/>
      <ItemData ItemOID="IT.QSPH.QSEVLINT" Value="-P2W"/>
    </ItemGroupData>
    <ItemGroupData ItemGroupOID="IG.QSPH" data:ItemGroupDataSeq="149">
      <ItemData ItemOID="IT.QSPH.STUDYID" Value="CDISCPILOT01"/>
      <ItemData ItemOID="IT.QSPH.DOMAIN" Value="QS"/>
      <ItemData ItemOID="IT.QSPH.USUBJID" Value="CDISC011"/>
      <ItemData ItemOID="IT.QSPH.QSSEQ" Value="6"/>
      <ItemData ItemOID="IT.QSPH.QSTESTCD" Value="PHQ0106"/>
      <ItemData ItemOID="IT.QSPH.QSTEST" Value="PHQ01-Feeling Bad About Yourself"/>
      <ItemData ItemOID="IT.QSPH.QSCAT" Value="PHQ-9"/>
      <ItemData ItemOID="IT.QSPH.QSORRES" Value="More than half the days"/>
      <ItemData ItemOID="IT.QSPH.QSSTRESC" Value="2"/>
      <ItemData ItemOID="IT.QSPH.QSSTRESN" Value="2"/>
      <ItemData ItemOID="IT.QSPH.VISITNUM" Value="3"/>
      <ItemData ItemOID="IT.QSPH.VISIT" Value="BASELINE"/>
      <ItemData ItemOID="IT.QSPH.EPOCH" Value="SCREENING"/>
      <ItemData ItemOID="IT.QSPH.QSDTC" Value="2012-12-07"/>
      <ItemData ItemOID="IT.QSPH.QSDY" Value="1"/>
      <ItemData ItemOID="IT.QSPH.QSEVLINT" Value="-P2W"/>
    </ItemGroupData>
    <ItemGroupData ItemGroupOID="IG.QSPH" data:ItemGroupDataSeq="150">
      <ItemData ItemOID="IT.QSPH.STUDYID" Value="CDISCPILOT01"/>
      <ItemData ItemOID="IT.QSPH.DOMAIN" Value="QS"/>
      <ItemData ItemOID="IT.QSPH.USUBJID" Value="CDISC011"/>
      <ItemData ItemOID="IT.QSPH.QSSEQ" Value="7"/>
      <ItemData ItemOID="IT.QSPH.QSTESTCD" Value="PHQ0107"/>
      <ItemData ItemOID="IT.QSPH.QSTEST" Value="PHQ01-Trouble Concentrating on Things"/>
      <ItemData ItemOID="IT.QSPH.QSCAT" Value="PHQ-9"/>
      <ItemData ItemOID="IT.QSPH.QSORRES" Value="Several days"/>
      <ItemData ItemOID="IT.QSPH.QSSTRESC" Value="1"/>
      <ItemData ItemOID="IT.QSPH.QSSTRESN" Value="1"/>
      <ItemData ItemOID="IT.QSPH.VISITNUM" Value="3"/>
      <ItemData ItemOID="IT.QSPH.VISIT" Value="BASELINE"/>
      <ItemData ItemOID="IT.QSPH.EPOCH" Value="SCREENING"/>
      <ItemData ItemOID="IT.QSPH.QSDTC" Value="2012-12-07"/>
      <ItemData ItemOID="IT.QSPH.QSDY" Value="1"/>
      <ItemData ItemOID="IT.QSPH.QSEVLINT" Value="-P2W"/>
    </ItemGroupData>
    <ItemGroupData ItemGroupOID="IG.QSPH" data:ItemGroupDataSeq="151">
      <ItemData ItemOID="IT.QSPH.STUDYID" Value="CDISCPILOT01"/>
      <ItemData ItemOID="IT.QSPH.DOMAIN" Value="QS"/>
      <ItemData ItemOID="IT.QSPH.USUBJID" Value="CDISC011"/>
      <ItemData ItemOID="IT.QSPH.QSSEQ" Value="8"/>
      <ItemData ItemOID="IT.QSPH.QSTESTCD" Value="PHQ0108"/>
      <ItemData ItemOID="IT.QSPH.QSTEST" Value="PHQ01-Moving Slowly or Fidgety/Restless"/>
      <ItemData ItemOID="IT.QSPH.QSCAT" Value="PHQ-9"/>
      <ItemData ItemOID="IT.QSPH.QSORRES" Value="Nearly every day"/>
      <ItemData ItemOID="IT.QSPH.QSSTRESC" Value="3"/>
      <ItemData ItemOID="IT.QSPH.QSSTRESN" Value="3"/>
      <ItemData ItemOID="IT.QSPH.VISITNUM" Value="3"/>
      <ItemData ItemOID="IT.QSPH.VISIT" Value="BASELINE"/>
      <ItemData ItemOID="IT.QSPH.EPOCH" Value="SCREENING"/>
      <ItemData ItemOID="IT.QSPH.QSDTC" Value="2012-12-07"/>
      <ItemData ItemOID="IT.QSPH.QSDY" Value="1"/>
      <ItemData ItemOID="IT.QSPH.QSEVLINT" Value="-P2W"/>
    </ItemGroupData>
    <ItemGroupData ItemGroupOID="IG.QSPH" data:ItemGroupDataSeq="152">
      <ItemData ItemOID="IT.QSPH.STUDYID" Value="CDISCPILOT01"/>
      <ItemData ItemOID="IT.QSPH.DOMAIN" Value="QS"/>
      <ItemData ItemOID="IT.QSPH.USUBJID" Value="CDISC011"/>
      <ItemData ItemOID="IT.QSPH.QSSEQ" Value="9"/>
      <ItemData ItemOID="IT.QSPH.QSTESTCD" Value="PHQ0109"/>
      <ItemData ItemOID="IT.QSPH.QSTEST" Value="PHQ01-Thoughts You Be Better Off Dead"/>
      <ItemData ItemOID="IT.QSPH.QSCAT" Value="PHQ-9"/>
      <ItemData ItemOID="IT.QSPH.QSORRES" Value="More than half the days"/>
      <ItemData ItemOID="IT.QSPH.QSSTRESC" Value="2"/>
      <ItemData ItemOID="IT.QSPH.QSSTRESN" Value="2"/>
      <ItemData ItemOID="IT.QSPH.VISITNUM" Value="3"/>
      <ItemData ItemOID="IT.QSPH.VISIT" Value="BASELINE"/>
      <ItemData ItemOID="IT.QSPH.EPOCH" Value="SCREENING"/>
      <ItemData ItemOID="IT.QSPH.QSDTC" Value="2012-12-07"/>
      <ItemData ItemOID="IT.QSPH.QSDY" Value="1"/>
      <ItemData ItemOID="IT.QSPH.QSEVLINT" Value="-P2W"/>
    </ItemGroupData>
    <ItemGroupData ItemGroupOID="IG.QSPH" data:ItemGroupDataSeq="153">
      <ItemData ItemOID="IT.QSPH.STUDYID" Value="CDISCPILOT01"/>
      <ItemData ItemOID="IT.QSPH.DOMAIN" Value="QS"/>
      <ItemData ItemOID="IT.QSPH.USUBJID" Value="CDISC011"/>
      <ItemData ItemOID="IT.QSPH.QSSEQ" Value="10"/>
      <ItemData ItemOID="IT.QSPH.QSTESTCD" Value="PHQ0110"/>
      <ItemData ItemOID="IT.QSPH.QSTEST" Value="PHQ01-Difficult to Work/Take Care Things"/>
      <ItemData ItemOID="IT.QSPH.QSCAT" Value="PHQ-9"/>
      <ItemData ItemOID="IT.QSPH.QSORRES" Value="Somewhat difficult"/>
      <ItemData ItemOID="IT.QSPH.QSSTRESC" Value="Somewhat difficult"/>
      <ItemData ItemOID="IT.QSPH.VISITNUM" Value="3"/>
      <ItemData ItemOID="IT.QSPH.VISIT" Value="BASELINE"/>
      <ItemData ItemOID="IT.QSPH.EPOCH" Value="SCREENING"/>
      <ItemData ItemOID="IT.QSPH.QSDTC" Value="2012-12-07"/>
      <ItemData ItemOID="IT.QSPH.QSDY" Value="1"/>
      <ItemData ItemOID="IT.QSPH.QSEVLINT" Value="-P2W"/>
    </ItemGroupData>
    <ItemGroupData ItemGroupOID="IG.QSPH" data:ItemGroupDataSeq="154">
      <ItemData ItemOID="IT.QSPH.STUDYID" Value="CDISCPILOT01"/>
      <ItemData ItemOID="IT.QSPH.DOMAIN" Value="QS"/>
      <ItemData ItemOID="IT.QSPH.USUBJID" Value="CDISC011"/>
      <ItemData ItemOID="IT.QSPH.QSSEQ" Value="11"/>
      <ItemData ItemOID="IT.QSPH.QSTESTCD" Value="PHQ0111"/>
      <ItemData ItemOID="IT.QSPH.QSTEST" Value="PHQ01-Total Score"/>
      <ItemData ItemOID="IT.QSPH.QSCAT" Value="PHQ-9"/>
      <ItemData ItemOID="IT.QSPH.QSORRES" Value="19"/>
      <ItemData ItemOID="IT.QSPH.QSSTRESC" Value="19"/>
      <ItemData ItemOID="IT.QSPH.QSSTRESN" Value="19"/>
      <ItemData ItemOID="IT.QSPH.VISITNUM" Value="3"/>
      <ItemData ItemOID="IT.QSPH.VISIT" Value="BASELINE"/>
      <ItemData ItemOID="IT.QSPH.EPOCH" Value="SCREENING"/>
      <ItemData ItemOID="IT.QSPH.QSDTC" Value="2012-12-07"/>
      <ItemData ItemOID="IT.QSPH.QSDY" Value="1"/>
      <ItemData ItemOID="IT.QSPH.QSEVLINT" Value="-P2W"/>
    </ItemGroupData>
    <ItemGroupData ItemGroupOID="IG.QSPH" data:ItemGroupDataSeq="155">
      <ItemData ItemOID="IT.QSPH.STUDYID" Value="CDISCPILOT01"/>
      <ItemData ItemOID="IT.QSPH.DOMAIN" Value="QS"/>
      <ItemData ItemOID="IT.QSPH.USUBJID" Value="CDISC011"/>
      <ItemData ItemOID="IT.QSPH.QSSEQ" Value="17"/>
      <ItemData ItemOID="IT.QSPH.QSTESTCD" Value="PHQ0101"/>
      <ItemData ItemOID="IT.QSPH.QSTEST" Value="PHQ01-Little Interest/Pleasure in Things"/>
      <ItemData ItemOID="IT.QSPH.QSCAT" Value="PHQ-9"/>
      <ItemData ItemOID="IT.QSPH.QSORRES" Value="More than half the days"/>
      <ItemData ItemOID="IT.QSPH.QSSTRESC" Value="2"/>
      <ItemData ItemOID="IT.QSPH.QSSTRESN" Value="2"/>
      <ItemData ItemOID="IT.QSPH.VISITNUM" Value="10"/>
      <ItemData ItemOID="IT.QSPH.VISIT" Value="WEEK 16"/>
      <ItemData ItemOID="IT.QSPH.EPOCH" Value="TREATMENT"/>
      <ItemData ItemOID="IT.QSPH.QSDTC" Value="2013-03-27"/>
      <ItemData ItemOID="IT.QSPH.QSDY" Value="111"/>
      <ItemData ItemOID="IT.QSPH.QSEVLINT" Value="-P2W"/>
    </ItemGroupData>
    <ItemGroupData ItemGroupOID="IG.QSPH" data:ItemGroupDataSeq="156">
      <ItemData ItemOID="IT.QSPH.STUDYID" Value="CDISCPILOT01"/>
      <ItemData ItemOID="IT.QSPH.DOMAIN" Value="QS"/>
      <ItemData ItemOID="IT.QSPH.USUBJID" Value="CDISC011"/>
      <ItemData ItemOID="IT.QSPH.QSSEQ" Value="18"/>
      <ItemData ItemOID="IT.QSPH.QSTESTCD" Value="PHQ0102"/>
      <ItemData ItemOID="IT.QSPH.QSTEST" Value="PHQ01-Feeling Down Depressed or Hopeless"/>
      <ItemData ItemOID="IT.QSPH.QSCAT" Value="PHQ-9"/>
      <ItemData ItemOID="IT.QSPH.QSORRES" Value="More than half the days"/>
      <ItemData ItemOID="IT.QSPH.QSSTRESC" Value="2"/>
      <ItemData ItemOID="IT.QSPH.QSSTRESN" Value="2"/>
      <ItemData ItemOID="IT.QSPH.VISITNUM" Value="10"/>
      <ItemData ItemOID="IT.QSPH.VISIT" Value="WEEK 16"/>
      <ItemData ItemOID="IT.QSPH.EPOCH" Value="TREATMENT"/>
      <ItemData ItemOID="IT.QSPH.QSDTC" Value="2013-03-27"/>
      <ItemData ItemOID="IT.QSPH.QSDY" Value="111"/>
      <ItemData ItemOID="IT.QSPH.QSEVLINT" Value="-P2W"/>
    </ItemGroupData>
    <ItemGroupData ItemGroupOID="IG.QSPH" data:ItemGroupDataSeq="157">
      <ItemData ItemOID="IT.QSPH.STUDYID" Value="CDISCPILOT01"/>
      <ItemData ItemOID="IT.QSPH.DOMAIN" Value="QS"/>
      <ItemData ItemOID="IT.QSPH.USUBJID" Value="CDISC011"/>
      <ItemData ItemOID="IT.QSPH.QSSEQ" Value="19"/>
      <ItemData ItemOID="IT.QSPH.QSTESTCD" Value="PHQ0103"/>
      <ItemData ItemOID="IT.QSPH.QSTEST" Value="PHQ01-Trouble Falling or Staying Asleep"/>
      <ItemData ItemOID="IT.QSPH.QSCAT" Value="PHQ-9"/>
      <ItemData ItemOID="IT.QSPH.QSORRES" Value="Nearly every day"/>
      <ItemData ItemOID="IT.QSPH.QSSTRESC" Value="3"/>
      <ItemData ItemOID="IT.QSPH.QSSTRESN" Value="3"/>
      <ItemData ItemOID="IT.QSPH.VISITNUM" Value="10"/>
      <ItemData ItemOID="IT.QSPH.VISIT" Value="WEEK 16"/>
      <ItemData ItemOID="IT.QSPH.EPOCH" Value="TREATMENT"/>
      <ItemData ItemOID="IT.QSPH.QSDTC" Value="2013-03-27"/>
      <ItemData ItemOID="IT.QSPH.QSDY" Value="111"/>
      <ItemData ItemOID="IT.QSPH.QSEVLINT" Value="-P2W"/>
    </ItemGroupData>
    <ItemGroupData ItemGroupOID="IG.QSPH" data:ItemGroupDataSeq="158">
      <ItemData ItemOID="IT.QSPH.STUDYID" Value="CDISCPILOT01"/>
      <ItemData ItemOID="IT.QSPH.DOMAIN" Value="QS"/>
      <ItemData ItemOID="IT.QSPH.USUBJID" Value="CDISC011"/>
      <ItemData ItemOID="IT.QSPH.QSSEQ" Value="20"/>
      <ItemData ItemOID="IT.QSPH.QSTESTCD" Value="PHQ0104"/>
      <ItemData ItemOID="IT.QSPH.QSTEST" Value="PHQ01-Feeling Tired or Little Energy"/>
      <ItemData ItemOID="IT.QSPH.QSCAT" Value="PHQ-9"/>
      <ItemData ItemOID="IT.QSPH.QSORRES" Value="More than half the days"/>
      <ItemData ItemOID="IT.QSPH.QSSTRESC" Value="2"/>
      <ItemData ItemOID="IT.QSPH.QSSTRESN" Value="2"/>
      <ItemData ItemOID="IT.QSPH.VISITNUM" Value="10"/>
      <ItemData ItemOID="IT.QSPH.VISIT" Value="WEEK 16"/>
      <ItemData ItemOID="IT.QSPH.EPOCH" Value="TREATMENT"/>
      <ItemData ItemOID="IT.QSPH.QSDTC" Value="2013-03-27"/>
      <ItemData ItemOID="IT.QSPH.QSDY" Value="111"/>
      <ItemData ItemOID="IT.QSPH.QSEVLINT" Value="-P2W"/>
    </ItemGroupData>
    <ItemGroupData ItemGroupOID="IG.QSPH" data:ItemGroupDataSeq="159">
      <ItemData ItemOID="IT.QSPH.STUDYID" Value="CDISCPILOT01"/>
      <ItemData ItemOID="IT.QSPH.DOMAIN" Value="QS"/>
      <ItemData ItemOID="IT.QSPH.USUBJID" Value="CDISC011"/>
      <ItemData ItemOID="IT.QSPH.QSSEQ" Value="21"/>
      <ItemData ItemOID="IT.QSPH.QSTESTCD" Value="PHQ0105"/>
      <ItemData ItemOID="IT.QSPH.QSTEST" Value="PHQ01-Poor Appetite or Overeating"/>
      <ItemData ItemOID="IT.QSPH.QSCAT" Value="PHQ-9"/>
      <ItemData ItemOID="IT.QSPH.QSORRES" Value="More than half the days"/>
      <ItemData ItemOID="IT.QSPH.QSSTRESC" Value="2"/>
      <ItemData ItemOID="IT.QSPH.QSSTRESN" Value="2"/>
      <ItemData ItemOID="IT.QSPH.VISITNUM" Value="10"/>
      <ItemData ItemOID="IT.QSPH.VISIT" Value="WEEK 16"/>
      <ItemData ItemOID="IT.QSPH.EPOCH" Value="TREATMENT"/>
      <ItemData ItemOID="IT.QSPH.QSDTC" Value="2013-03-27"/>
      <ItemData ItemOID="IT.QSPH.QSDY" Value="111"/>
      <ItemData ItemOID="IT.QSPH.QSEVLINT" Value="-P2W"/>
    </ItemGroupData>
    <ItemGroupData ItemGroupOID="IG.QSPH" data:ItemGroupDataSeq="160">
      <ItemData ItemOID="IT.QSPH.STUDYID" Value="CDISCPILOT01"/>
      <ItemData ItemOID="IT.QSPH.DOMAIN" Value="QS"/>
      <ItemData ItemOID="IT.QSPH.USUBJID" Value="CDISC011"/>
      <ItemData ItemOID="IT.QSPH.QSSEQ" Value="22"/>
      <ItemData ItemOID="IT.QSPH.QSTESTCD" Value="PHQ0106"/>
      <ItemData ItemOID="IT.QSPH.QSTEST" Value="PHQ01-Feeling Bad About Yourself"/>
      <ItemData ItemOID="IT.QSPH.QSCAT" Value="PHQ-9"/>
      <ItemData ItemOID="IT.QSPH.QSORRES" Value="More than half the days"/>
      <ItemData ItemOID="IT.QSPH.QSSTRESC" Value="2"/>
      <ItemData ItemOID="IT.QSPH.QSSTRESN" Value="2"/>
      <ItemData ItemOID="IT.QSPH.VISITNUM" Value="10"/>
      <ItemData ItemOID="IT.QSPH.VISIT" Value="WEEK 16"/>
      <ItemData ItemOID="IT.QSPH.EPOCH" Value="TREATMENT"/>
      <ItemData ItemOID="IT.QSPH.QSDTC" Value="2013-03-27"/>
      <ItemData ItemOID="IT.QSPH.QSDY" Value="111"/>
      <ItemData ItemOID="IT.QSPH.QSEVLINT" Value="-P2W"/>
    </ItemGroupData>
    <ItemGroupData ItemGroupOID="IG.QSPH" data:ItemGroupDataSeq="161">
      <ItemData ItemOID="IT.QSPH.STUDYID" Value="CDISCPILOT01"/>
      <ItemData ItemOID="IT.QSPH.DOMAIN" Value="QS"/>
      <ItemData ItemOID="IT.QSPH.USUBJID" Value="CDISC011"/>
      <ItemData ItemOID="IT.QSPH.QSSEQ" Value="23"/>
      <ItemData ItemOID="IT.QSPH.QSTESTCD" Value="PHQ0107"/>
      <ItemData ItemOID="IT.QSPH.QSTEST" Value="PHQ01-Trouble Concentrating on Things"/>
      <ItemData ItemOID="IT.QSPH.QSCAT" Value="PHQ-9"/>
      <ItemData ItemOID="IT.QSPH.QSORRES" Value="Several days"/>
      <ItemData ItemOID="IT.QSPH.QSSTRESC" Value="1"/>
      <ItemData ItemOID="IT.QSPH.QSSTRESN" Value="1"/>
      <ItemData ItemOID="IT.QSPH.VISITNUM" Value="10"/>
      <ItemData ItemOID="IT.QSPH.VISIT" Value="WEEK 16"/>
      <ItemData ItemOID="IT.QSPH.EPOCH" Value="TREATMENT"/>
      <ItemData ItemOID="IT.QSPH.QSDTC" Value="2013-03-27"/>
      <ItemData ItemOID="IT.QSPH.QSDY" Value="111"/>
      <ItemData ItemOID="IT.QSPH.QSEVLINT" Value="-P2W"/>
    </ItemGroupData>
    <ItemGroupData ItemGroupOID="IG.QSPH" data:ItemGroupDataSeq="162">
      <ItemData ItemOID="IT.QSPH.STUDYID" Value="CDISCPILOT01"/>
      <ItemData ItemOID="IT.QSPH.DOMAIN" Value="QS"/>
      <ItemData ItemOID="IT.QSPH.USUBJID" Value="CDISC011"/>
      <ItemData ItemOID="IT.QSPH.QSSEQ" Value="24"/>
      <ItemData ItemOID="IT.QSPH.QSTESTCD" Value="PHQ0108"/>
      <ItemData ItemOID="IT.QSPH.QSTEST" Value="PHQ01-Moving Slowly or Fidgety/Restless"/>
      <ItemData ItemOID="IT.QSPH.QSCAT" Value="PHQ-9"/>
      <ItemData ItemOID="IT.QSPH.QSORRES" Value="Nearly every day"/>
      <ItemData ItemOID="IT.QSPH.QSSTRESC" Value="3"/>
      <ItemData ItemOID="IT.QSPH.QSSTRESN" Value="3"/>
      <ItemData ItemOID="IT.QSPH.VISITNUM" Value="10"/>
      <ItemData ItemOID="IT.QSPH.VISIT" Value="WEEK 16"/>
      <ItemData ItemOID="IT.QSPH.EPOCH" Value="TREATMENT"/>
      <ItemData ItemOID="IT.QSPH.QSDTC" Value="2013-03-27"/>
      <ItemData ItemOID="IT.QSPH.QSDY" Value="111"/>
      <ItemData ItemOID="IT.QSPH.QSEVLINT" Value="-P2W"/>
    </ItemGroupData>
    <ItemGroupData ItemGroupOID="IG.QSPH" data:ItemGroupDataSeq="163">
      <ItemData ItemOID="IT.QSPH.STUDYID" Value="CDISCPILOT01"/>
      <ItemData ItemOID="IT.QSPH.DOMAIN" Value="QS"/>
      <ItemData ItemOID="IT.QSPH.USUBJID" Value="CDISC011"/>
      <ItemData ItemOID="IT.QSPH.QSSEQ" Value="25"/>
      <ItemData ItemOID="IT.QSPH.QSTESTCD" Value="PHQ0109"/>
      <ItemData ItemOID="IT.QSPH.QSTEST" Value="PHQ01-Thoughts You Be Better Off Dead"/>
      <ItemData ItemOID="IT.QSPH.QSCAT" Value="PHQ-9"/>
      <ItemData ItemOID="IT.QSPH.QSORRES" Value="More than half the days"/>
      <ItemData ItemOID="IT.QSPH.QSSTRESC" Value="2"/>
      <ItemData ItemOID="IT.QSPH.QSSTRESN" Value="2"/>
      <ItemData ItemOID="IT.QSPH.VISITNUM" Value="10"/>
      <ItemData ItemOID="IT.QSPH.VISIT" Value="WEEK 16"/>
      <ItemData ItemOID="IT.QSPH.EPOCH" Value="TREATMENT"/>
      <ItemData ItemOID="IT.QSPH.QSDTC" Value="2013-03-27"/>
      <ItemData ItemOID="IT.QSPH.QSDY" Value="111"/>
      <ItemData ItemOID="IT.QSPH.QSEVLINT" Value="-P2W"/>
    </ItemGroupData>
    <ItemGroupData ItemGroupOID="IG.QSPH" data:ItemGroupDataSeq="164">
      <ItemData ItemOID="IT.QSPH.STUDYID" Value="CDISCPILOT01"/>
      <ItemData ItemOID="IT.QSPH.DOMAIN" Value="QS"/>
      <ItemData ItemOID="IT.QSPH.USUBJID" Value="CDISC011"/>
      <ItemData ItemOID="IT.QSPH.QSSEQ" Value="26"/>
      <ItemData ItemOID="IT.QSPH.QSTESTCD" Value="PHQ0110"/>
      <ItemData ItemOID="IT.QSPH.QSTEST" Value="PHQ01-Difficult to Work/Take Care Things"/>
      <ItemData ItemOID="IT.QSPH.QSCAT" Value="PHQ-9"/>
      <ItemData ItemOID="IT.QSPH.QSORRES" Value="Not difficult at all"/>
      <ItemData ItemOID="IT.QSPH.QSSTRESC" Value="Not difficult at all"/>
      <ItemData ItemOID="IT.QSPH.VISITNUM" Value="10"/>
      <ItemData ItemOID="IT.QSPH.VISIT" Value="WEEK 16"/>
      <ItemData ItemOID="IT.QSPH.EPOCH" Value="TREATMENT"/>
      <ItemData ItemOID="IT.QSPH.QSDTC" Value="2013-03-27"/>
      <ItemData ItemOID="IT.QSPH.QSDY" Value="111"/>
      <ItemData ItemOID="IT.QSPH.QSEVLINT" Value="-P2W"/>
    </ItemGroupData>
    <ItemGroupData ItemGroupOID="IG.QSPH" data:ItemGroupDataSeq="165">
      <ItemData ItemOID="IT.QSPH.STUDYID" Value="CDISCPILOT01"/>
      <ItemData ItemOID="IT.QSPH.DOMAIN" Value="QS"/>
      <ItemData ItemOID="IT.QSPH.USUBJID" Value="CDISC011"/>
      <ItemData ItemOID="IT.QSPH.QSSEQ" Value="27"/>
      <ItemData ItemOID="IT.QSPH.QSTESTCD" Value="PHQ0111"/>
      <ItemData ItemOID="IT.QSPH.QSTEST" Value="PHQ01-Total Score"/>
      <ItemData ItemOID="IT.QSPH.QSCAT" Value="PHQ-9"/>
      <ItemData ItemOID="IT.QSPH.QSORRES" Value="19"/>
      <ItemData ItemOID="IT.QSPH.QSSTRESC" Value="19"/>
      <ItemData ItemOID="IT.QSPH.QSSTRESN" Value="19"/>
      <ItemData ItemOID="IT.QSPH.VISITNUM" Value="10"/>
      <ItemData ItemOID="IT.QSPH.VISIT" Value="WEEK 16"/>
      <ItemData ItemOID="IT.QSPH.EPOCH" Value="TREATMENT"/>
      <ItemData ItemOID="IT.QSPH.QSDTC" Value="2013-03-27"/>
      <ItemData ItemOID="IT.QSPH.QSDY" Value="111"/>
      <ItemData ItemOID="IT.QSPH.QSEVLINT" Value="-P2W"/>
    </ItemGroupData>
    <ItemGroupData ItemGroupOID="IG.QSPH" data:ItemGroupDataSeq="166">
      <ItemData ItemOID="IT.QSPH.STUDYID" Value="CDISCPILOT01"/>
      <ItemData ItemOID="IT.QSPH.DOMAIN" Value="QS"/>
      <ItemData ItemOID="IT.QSPH.USUBJID" Value="CDISC011"/>
      <ItemData ItemOID="IT.QSPH.QSSEQ" Value="28"/>
      <ItemData ItemOID="IT.QSPH.QSTESTCD" Value="PHQ0101"/>
      <ItemData ItemOID="IT.QSPH.QSTEST" Value="PHQ01-Little Interest/Pleasure in Things"/>
      <ItemData ItemOID="IT.QSPH.QSCAT" Value="PHQ-9"/>
      <ItemData ItemOID="IT.QSPH.QSORRES" Value="More than half the days"/>
      <ItemData ItemOID="IT.QSPH.QSSTRESC" Value="2"/>
      <ItemData ItemOID="IT.QSPH.QSSTRESN" Value="2"/>
      <ItemData ItemOID="IT.QSPH.VISITNUM" Value="12"/>
      <ItemData ItemOID="IT.QSPH.VISIT" Value="WEEK 24"/>
      <ItemData ItemOID="IT.QSPH.EPOCH" Value="TREATMENT"/>
      <ItemData ItemOID="IT.QSPH.QSDTC" Value="2013-05-22"/>
      <ItemData ItemOID="IT.QSPH.QSDY" Value="167"/>
      <ItemData ItemOID="IT.QSPH.QSEVLINT" Value="-P2W"/>
    </ItemGroupData>
    <ItemGroupData ItemGroupOID="IG.QSPH" data:ItemGroupDataSeq="167">
      <ItemData ItemOID="IT.QSPH.STUDYID" Value="CDISCPILOT01"/>
      <ItemData ItemOID="IT.QSPH.DOMAIN" Value="QS"/>
      <ItemData ItemOID="IT.QSPH.USUBJID" Value="CDISC011"/>
      <ItemData ItemOID="IT.QSPH.QSSEQ" Value="29"/>
      <ItemData ItemOID="IT.QSPH.QSTESTCD" Value="PHQ0102"/>
      <ItemData ItemOID="IT.QSPH.QSTEST" Value="PHQ01-Feeling Down Depressed or Hopeless"/>
      <ItemData ItemOID="IT.QSPH.QSCAT" Value="PHQ-9"/>
      <ItemData ItemOID="IT.QSPH.QSORRES" Value="More than half the days"/>
      <ItemData ItemOID="IT.QSPH.QSSTRESC" Value="2"/>
      <ItemData ItemOID="IT.QSPH.QSSTRESN" Value="2"/>
      <ItemData ItemOID="IT.QSPH.VISITNUM" Value="12"/>
      <ItemData ItemOID="IT.QSPH.VISIT" Value="WEEK 24"/>
      <ItemData ItemOID="IT.QSPH.EPOCH" Value="TREATMENT"/>
      <ItemData ItemOID="IT.QSPH.QSDTC" Value="2013-05-22"/>
      <ItemData ItemOID="IT.QSPH.QSDY" Value="167"/>
      <ItemData ItemOID="IT.QSPH.QSEVLINT" Value="-P2W"/>
    </ItemGroupData>
    <ItemGroupData ItemGroupOID="IG.QSPH" data:ItemGroupDataSeq="168">
      <ItemData ItemOID="IT.QSPH.STUDYID" Value="CDISCPILOT01"/>
      <ItemData ItemOID="IT.QSPH.DOMAIN" Value="QS"/>
      <ItemData ItemOID="IT.QSPH.USUBJID" Value="CDISC011"/>
      <ItemData ItemOID="IT.QSPH.QSSEQ" Value="30"/>
      <ItemData ItemOID="IT.QSPH.QSTESTCD" Value="PHQ0103"/>
      <ItemData ItemOID="IT.QSPH.QSTEST" Value="PHQ01-Trouble Falling or Staying Asleep"/>
      <ItemData ItemOID="IT.QSPH.QSCAT" Value="PHQ-9"/>
      <ItemData ItemOID="IT.QSPH.QSORRES" Value="Nearly every day"/>
      <ItemData ItemOID="IT.QSPH.QSSTRESC" Value="3"/>
      <ItemData ItemOID="IT.QSPH.QSSTRESN" Value="3"/>
      <ItemData ItemOID="IT.QSPH.VISITNUM" Value="12"/>
      <ItemData ItemOID="IT.QSPH.VISIT" Value="WEEK 24"/>
      <ItemData ItemOID="IT.QSPH.EPOCH" Value="TREATMENT"/>
      <ItemData ItemOID="IT.QSPH.QSDTC" Value="2013-05-22"/>
      <ItemData ItemOID="IT.QSPH.QSDY" Value="167"/>
      <ItemData ItemOID="IT.QSPH.QSEVLINT" Value="-P2W"/>
    </ItemGroupData>
    <ItemGroupData ItemGroupOID="IG.QSPH" data:ItemGroupDataSeq="169">
      <ItemData ItemOID="IT.QSPH.STUDYID" Value="CDISCPILOT01"/>
      <ItemData ItemOID="IT.QSPH.DOMAIN" Value="QS"/>
      <ItemData ItemOID="IT.QSPH.USUBJID" Value="CDISC011"/>
      <ItemData ItemOID="IT.QSPH.QSSEQ" Value="31"/>
      <ItemData ItemOID="IT.QSPH.QSTESTCD" Value="PHQ0104"/>
      <ItemData ItemOID="IT.QSPH.QSTEST" Value="PHQ01-Feeling Tired or Little Energy"/>
      <ItemData ItemOID="IT.QSPH.QSCAT" Value="PHQ-9"/>
      <ItemData ItemOID="IT.QSPH.QSORRES" Value="More than half the days"/>
      <ItemData ItemOID="IT.QSPH.QSSTRESC" Value="2"/>
      <ItemData ItemOID="IT.QSPH.QSSTRESN" Value="2"/>
      <ItemData ItemOID="IT.QSPH.VISITNUM" Value="12"/>
      <ItemData ItemOID="IT.QSPH.VISIT" Value="WEEK 24"/>
      <ItemData ItemOID="IT.QSPH.EPOCH" Value="TREATMENT"/>
      <ItemData ItemOID="IT.QSPH.QSDTC" Value="2013-05-22"/>
      <ItemData ItemOID="IT.QSPH.QSDY" Value="167"/>
      <ItemData ItemOID="IT.QSPH.QSEVLINT" Value="-P2W"/>
    </ItemGroupData>
    <ItemGroupData ItemGroupOID="IG.QSPH" data:ItemGroupDataSeq="170">
      <ItemData ItemOID="IT.QSPH.STUDYID" Value="CDISCPILOT01"/>
      <ItemData ItemOID="IT.QSPH.DOMAIN" Value="QS"/>
      <ItemData ItemOID="IT.QSPH.USUBJID" Value="CDISC011"/>
      <ItemData ItemOID="IT.QSPH.QSSEQ" Value="32"/>
      <ItemData ItemOID="IT.QSPH.QSTESTCD" Value="PHQ0105"/>
      <ItemData ItemOID="IT.QSPH.QSTEST" Value="PHQ01-Poor Appetite or Overeating"/>
      <ItemData ItemOID="IT.QSPH.QSCAT" Value="PHQ-9"/>
      <ItemData ItemOID="IT.QSPH.QSORRES" Value="More than half the days"/>
      <ItemData ItemOID="IT.QSPH.QSSTRESC" Value="2"/>
      <ItemData ItemOID="IT.QSPH.QSSTRESN" Value="2"/>
      <ItemData ItemOID="IT.QSPH.VISITNUM" Value="12"/>
      <ItemData ItemOID="IT.QSPH.VISIT" Value="WEEK 24"/>
      <ItemData ItemOID="IT.QSPH.EPOCH" Value="TREATMENT"/>
      <ItemData ItemOID="IT.QSPH.QSDTC" Value="2013-05-22"/>
      <ItemData ItemOID="IT.QSPH.QSDY" Value="167"/>
      <ItemData ItemOID="IT.QSPH.QSEVLINT" Value="-P2W"/>
    </ItemGroupData>
    <ItemGroupData ItemGroupOID="IG.QSPH" data:ItemGroupDataSeq="171">
      <ItemData ItemOID="IT.QSPH.STUDYID" Value="CDISCPILOT01"/>
      <ItemData ItemOID="IT.QSPH.DOMAIN" Value="QS"/>
      <ItemData ItemOID="IT.QSPH.USUBJID" Value="CDISC011"/>
      <ItemData ItemOID="IT.QSPH.QSSEQ" Value="33"/>
      <ItemData ItemOID="IT.QSPH.QSTESTCD" Value="PHQ0106"/>
      <ItemData ItemOID="IT.QSPH.QSTEST" Value="PHQ01-Feeling Bad About Yourself"/>
      <ItemData ItemOID="IT.QSPH.QSCAT" Value="PHQ-9"/>
      <ItemData ItemOID="IT.QSPH.QSORRES" Value="More than half the days"/>
      <ItemData ItemOID="IT.QSPH.QSSTRESC" Value="2"/>
      <ItemData ItemOID="IT.QSPH.QSSTRESN" Value="2"/>
      <ItemData ItemOID="IT.QSPH.VISITNUM" Value="12"/>
      <ItemData ItemOID="IT.QSPH.VISIT" Value="WEEK 24"/>
      <ItemData ItemOID="IT.QSPH.EPOCH" Value="TREATMENT"/>
      <ItemData ItemOID="IT.QSPH.QSDTC" Value="2013-05-22"/>
      <ItemData ItemOID="IT.QSPH.QSDY" Value="167"/>
      <ItemData ItemOID="IT.QSPH.QSEVLINT" Value="-P2W"/>
    </ItemGroupData>
    <ItemGroupData ItemGroupOID="IG.QSPH" data:ItemGroupDataSeq="172">
      <ItemData ItemOID="IT.QSPH.STUDYID" Value="CDISCPILOT01"/>
      <ItemData ItemOID="IT.QSPH.DOMAIN" Value="QS"/>
      <ItemData ItemOID="IT.QSPH.USUBJID" Value="CDISC011"/>
      <ItemData ItemOID="IT.QSPH.QSSEQ" Value="34"/>
      <ItemData ItemOID="IT.QSPH.QSTESTCD" Value="PHQ0107"/>
      <ItemData ItemOID="IT.QSPH.QSTEST" Value="PHQ01-Trouble Concentrating on Things"/>
      <ItemData ItemOID="IT.QSPH.QSCAT" Value="PHQ-9"/>
      <ItemData ItemOID="IT.QSPH.QSORRES" Value="More than half the days"/>
      <ItemData ItemOID="IT.QSPH.QSSTRESC" Value="2"/>
      <ItemData ItemOID="IT.QSPH.QSSTRESN" Value="2"/>
      <ItemData ItemOID="IT.QSPH.VISITNUM" Value="12"/>
      <ItemData ItemOID="IT.QSPH.VISIT" Value="WEEK 24"/>
      <ItemData ItemOID="IT.QSPH.EPOCH" Value="TREATMENT"/>
      <ItemData ItemOID="IT.QSPH.QSDTC" Value="2013-05-22"/>
      <ItemData ItemOID="IT.QSPH.QSDY" Value="167"/>
      <ItemData ItemOID="IT.QSPH.QSEVLINT" Value="-P2W"/>
    </ItemGroupData>
    <ItemGroupData ItemGroupOID="IG.QSPH" data:ItemGroupDataSeq="173">
      <ItemData ItemOID="IT.QSPH.STUDYID" Value="CDISCPILOT01"/>
      <ItemData ItemOID="IT.QSPH.DOMAIN" Value="QS"/>
      <ItemData ItemOID="IT.QSPH.USUBJID" Value="CDISC011"/>
      <ItemData ItemOID="IT.QSPH.QSSEQ" Value="35"/>
      <ItemData ItemOID="IT.QSPH.QSTESTCD" Value="PHQ0108"/>
      <ItemData ItemOID="IT.QSPH.QSTEST" Value="PHQ01-Moving Slowly or Fidgety/Restless"/>
      <ItemData ItemOID="IT.QSPH.QSCAT" Value="PHQ-9"/>
      <ItemData ItemOID="IT.QSPH.QSORRES" Value="Nearly every day"/>
      <ItemData ItemOID="IT.QSPH.QSSTRESC" Value="3"/>
      <ItemData ItemOID="IT.QSPH.QSSTRESN" Value="3"/>
      <ItemData ItemOID="IT.QSPH.VISITNUM" Value="12"/>
      <ItemData ItemOID="IT.QSPH.VISIT" Value="WEEK 24"/>
      <ItemData ItemOID="IT.QSPH.EPOCH" Value="TREATMENT"/>
      <ItemData ItemOID="IT.QSPH.QSDTC" Value="2013-05-22"/>
      <ItemData ItemOID="IT.QSPH.QSDY" Value="167"/>
      <ItemData ItemOID="IT.QSPH.QSEVLINT" Value="-P2W"/>
    </ItemGroupData>
    <ItemGroupData ItemGroupOID="IG.QSPH" data:ItemGroupDataSeq="174">
      <ItemData ItemOID="IT.QSPH.STUDYID" Value="CDISCPILOT01"/>
      <ItemData ItemOID="IT.QSPH.DOMAIN" Value="QS"/>
      <ItemData ItemOID="IT.QSPH.USUBJID" Value="CDISC011"/>
      <ItemData ItemOID="IT.QSPH.QSSEQ" Value="36"/>
      <ItemData ItemOID="IT.QSPH.QSTESTCD" Value="PHQ0109"/>
      <ItemData ItemOID="IT.QSPH.QSTEST" Value="PHQ01-Thoughts You Be Better Off Dead"/>
      <ItemData ItemOID="IT.QSPH.QSCAT" Value="PHQ-9"/>
      <ItemData ItemOID="IT.QSPH.QSORRES" Value="More than half the days"/>
      <ItemData ItemOID="IT.QSPH.QSSTRESC" Value="2"/>
      <ItemData ItemOID="IT.QSPH.QSSTRESN" Value="2"/>
      <ItemData ItemOID="IT.QSPH.VISITNUM" Value="12"/>
      <ItemData ItemOID="IT.QSPH.VISIT" Value="WEEK 24"/>
      <ItemData ItemOID="IT.QSPH.EPOCH" Value="TREATMENT"/>
      <ItemData ItemOID="IT.QSPH.QSDTC" Value="2013-05-22"/>
      <ItemData ItemOID="IT.QSPH.QSDY" Value="167"/>
      <ItemData ItemOID="IT.QSPH.QSEVLINT" Value="-P2W"/>
    </ItemGroupData>
    <ItemGroupData ItemGroupOID="IG.QSPH" data:ItemGroupDataSeq="175">
      <ItemData ItemOID="IT.QSPH.STUDYID" Value="CDISCPILOT01"/>
      <ItemData ItemOID="IT.QSPH.DOMAIN" Value="QS"/>
      <ItemData ItemOID="IT.QSPH.USUBJID" Value="CDISC011"/>
      <ItemData ItemOID="IT.QSPH.QSSEQ" Value="37"/>
      <ItemData ItemOID="IT.QSPH.QSTESTCD" Value="PHQ0110"/>
      <ItemData ItemOID="IT.QSPH.QSTEST" Value="PHQ01-Difficult to Work/Take Care Things"/>
      <ItemData ItemOID="IT.QSPH.QSCAT" Value="PHQ-9"/>
      <ItemData ItemOID="IT.QSPH.QSORRES" Value="Somewhat difficult"/>
      <ItemData ItemOID="IT.QSPH.QSSTRESC" Value="Somewhat difficult"/>
      <ItemData ItemOID="IT.QSPH.VISITNUM" Value="12"/>
      <ItemData ItemOID="IT.QSPH.VISIT" Value="WEEK 24"/>
      <ItemData ItemOID="IT.QSPH.EPOCH" Value="TREATMENT"/>
      <ItemData ItemOID="IT.QSPH.QSDTC" Value="2013-05-22"/>
      <ItemData ItemOID="IT.QSPH.QSDY" Value="167"/>
      <ItemData ItemOID="IT.QSPH.QSEVLINT" Value="-P2W"/>
    </ItemGroupData>
    <ItemGroupData ItemGroupOID="IG.QSPH" data:ItemGroupDataSeq="176">
      <ItemData ItemOID="IT.QSPH.STUDYID" Value="CDISCPILOT01"/>
      <ItemData ItemOID="IT.QSPH.DOMAIN" Value="QS"/>
      <ItemData ItemOID="IT.QSPH.USUBJID" Value="CDISC011"/>
      <ItemData ItemOID="IT.QSPH.QSSEQ" Value="38"/>
      <ItemData ItemOID="IT.QSPH.QSTESTCD" Value="PHQ0111"/>
      <ItemData ItemOID="IT.QSPH.QSTEST" Value="PHQ01-Total Score"/>
      <ItemData ItemOID="IT.QSPH.QSCAT" Value="PHQ-9"/>
      <ItemData ItemOID="IT.QSPH.QSORRES" Value="20"/>
      <ItemData ItemOID="IT.QSPH.QSSTRESC" Value="20"/>
      <ItemData ItemOID="IT.QSPH.QSSTRESN" Value="20"/>
      <ItemData ItemOID="IT.QSPH.VISITNUM" Value="12"/>
      <ItemData ItemOID="IT.QSPH.VISIT" Value="WEEK 24"/>
      <ItemData ItemOID="IT.QSPH.EPOCH" Value="TREATMENT"/>
      <ItemData ItemOID="IT.QSPH.QSDTC" Value="2013-05-22"/>
      <ItemData ItemOID="IT.QSPH.QSDY" Value="167"/>
      <ItemData ItemOID="IT.QSPH.QSEVLINT" Value="-P2W"/>
    </ItemGroupData>
    <ItemGroupData ItemGroupOID="IG.QSPH" data:ItemGroupDataSeq="177">
      <ItemData ItemOID="IT.QSPH.STUDYID" Value="CDISCPILOT01"/>
      <ItemData ItemOID="IT.QSPH.DOMAIN" Value="QS"/>
      <ItemData ItemOID="IT.QSPH.USUBJID" Value="CDISC012"/>
      <ItemData ItemOID="IT.QSPH.QSSEQ" Value="1"/>
      <ItemData ItemOID="IT.QSPH.QSTESTCD" Value="PHQ0101"/>
      <ItemData ItemOID="IT.QSPH.QSTEST" Value="PHQ01-Little Interest/Pleasure in Things"/>
      <ItemData ItemOID="IT.QSPH.QSCAT" Value="PHQ-9"/>
      <ItemData ItemOID="IT.QSPH.QSORRES" Value="Several days"/>
      <ItemData ItemOID="IT.QSPH.QSSTRESC" Value="1"/>
      <ItemData ItemOID="IT.QSPH.QSSTRESN" Value="1"/>
      <ItemData ItemOID="IT.QSPH.QSLOBXFL" Value="Y"/>
      <ItemData ItemOID="IT.QSPH.VISITNUM" Value="3"/>
      <ItemData ItemOID="IT.QSPH.VISIT" Value="BASELINE"/>
      <ItemData ItemOID="IT.QSPH.EPOCH" Value="SCREENING"/>
      <ItemData ItemOID="IT.QSPH.QSDTC" Value="2013-09-03"/>
      <ItemData ItemOID="IT.QSPH.QSDY" Value="1"/>
      <ItemData ItemOID="IT.QSPH.QSEVLINT" Value="-P2W"/>
    </ItemGroupData>
    <ItemGroupData ItemGroupOID="IG.QSPH" data:ItemGroupDataSeq="178">
      <ItemData ItemOID="IT.QSPH.STUDYID" Value="CDISCPILOT01"/>
      <ItemData ItemOID="IT.QSPH.DOMAIN" Value="QS"/>
      <ItemData ItemOID="IT.QSPH.USUBJID" Value="CDISC012"/>
      <ItemData ItemOID="IT.QSPH.QSSEQ" Value="2"/>
      <ItemData ItemOID="IT.QSPH.QSTESTCD" Value="PHQ0102"/>
      <ItemData ItemOID="IT.QSPH.QSTEST" Value="PHQ01-Feeling Down Depressed or Hopeless"/>
      <ItemData ItemOID="IT.QSPH.QSCAT" Value="PHQ-9"/>
      <ItemData ItemOID="IT.QSPH.QSORRES" Value="Several days"/>
      <ItemData ItemOID="IT.QSPH.QSSTRESC" Value="1"/>
      <ItemData ItemOID="IT.QSPH.QSSTRESN" Value="1"/>
      <ItemData ItemOID="IT.QSPH.QSLOBXFL" Value="Y"/>
      <ItemData ItemOID="IT.QSPH.VISITNUM" Value="3"/>
      <ItemData ItemOID="IT.QSPH.VISIT" Value="BASELINE"/>
      <ItemData ItemOID="IT.QSPH.EPOCH" Value="SCREENING"/>
      <ItemData ItemOID="IT.QSPH.QSDTC" Value="2013-09-03"/>
      <ItemData ItemOID="IT.QSPH.QSDY" Value="1"/>
      <ItemData ItemOID="IT.QSPH.QSEVLINT" Value="-P2W"/>
    </ItemGroupData>
    <ItemGroupData ItemGroupOID="IG.QSPH" data:ItemGroupDataSeq="179">
      <ItemData ItemOID="IT.QSPH.STUDYID" Value="CDISCPILOT01"/>
      <ItemData ItemOID="IT.QSPH.DOMAIN" Value="QS"/>
      <ItemData ItemOID="IT.QSPH.USUBJID" Value="CDISC012"/>
      <ItemData ItemOID="IT.QSPH.QSSEQ" Value="3"/>
      <ItemData ItemOID="IT.QSPH.QSTESTCD" Value="PHQ0103"/>
      <ItemData ItemOID="IT.QSPH.QSTEST" Value="PHQ01-Trouble Falling or Staying Asleep"/>
      <ItemData ItemOID="IT.QSPH.QSCAT" Value="PHQ-9"/>
      <ItemData ItemOID="IT.QSPH.QSORRES" Value="More than half the days"/>
      <ItemData ItemOID="IT.QSPH.QSSTRESC" Value="2"/>
      <ItemData ItemOID="IT.QSPH.QSSTRESN" Value="2"/>
      <ItemData ItemOID="IT.QSPH.QSLOBXFL" Value="Y"/>
      <ItemData ItemOID="IT.QSPH.VISITNUM" Value="3"/>
      <ItemData ItemOID="IT.QSPH.VISIT" Value="BASELINE"/>
      <ItemData ItemOID="IT.QSPH.EPOCH" Value="SCREENING"/>
      <ItemData ItemOID="IT.QSPH.QSDTC" Value="2013-09-03"/>
      <ItemData ItemOID="IT.QSPH.QSDY" Value="1"/>
      <ItemData ItemOID="IT.QSPH.QSEVLINT" Value="-P2W"/>
    </ItemGroupData>
    <ItemGroupData ItemGroupOID="IG.QSPH" data:ItemGroupDataSeq="180">
      <ItemData ItemOID="IT.QSPH.STUDYID" Value="CDISCPILOT01"/>
      <ItemData ItemOID="IT.QSPH.DOMAIN" Value="QS"/>
      <ItemData ItemOID="IT.QSPH.USUBJID" Value="CDISC012"/>
      <ItemData ItemOID="IT.QSPH.QSSEQ" Value="4"/>
      <ItemData ItemOID="IT.QSPH.QSTESTCD" Value="PHQ0104"/>
      <ItemData ItemOID="IT.QSPH.QSTEST" Value="PHQ01-Feeling Tired or Little Energy"/>
      <ItemData ItemOID="IT.QSPH.QSCAT" Value="PHQ-9"/>
      <ItemData ItemOID="IT.QSPH.QSORRES" Value="Several days"/>
      <ItemData ItemOID="IT.QSPH.QSSTRESC" Value="1"/>
      <ItemData ItemOID="IT.QSPH.QSSTRESN" Value="1"/>
      <ItemData ItemOID="IT.QSPH.QSLOBXFL" Value="Y"/>
      <ItemData ItemOID="IT.QSPH.VISITNUM" Value="3"/>
      <ItemData ItemOID="IT.QSPH.VISIT" Value="BASELINE"/>
      <ItemData ItemOID="IT.QSPH.EPOCH" Value="SCREENING"/>
      <ItemData ItemOID="IT.QSPH.QSDTC" Value="2013-09-03"/>
      <ItemData ItemOID="IT.QSPH.QSDY" Value="1"/>
      <ItemData ItemOID="IT.QSPH.QSEVLINT" Value="-P2W"/>
    </ItemGroupData>
    <ItemGroupData ItemGroupOID="IG.QSPH" data:ItemGroupDataSeq="181">
      <ItemData ItemOID="IT.QSPH.STUDYID" Value="CDISCPILOT01"/>
      <ItemData ItemOID="IT.QSPH.DOMAIN" Value="QS"/>
      <ItemData ItemOID="IT.QSPH.USUBJID" Value="CDISC012"/>
      <ItemData ItemOID="IT.QSPH.QSSEQ" Value="5"/>
      <ItemData ItemOID="IT.QSPH.QSTESTCD" Value="PHQ0105"/>
      <ItemData ItemOID="IT.QSPH.QSTEST" Value="PHQ01-Poor Appetite or Overeating"/>
      <ItemData ItemOID="IT.QSPH.QSCAT" Value="PHQ-9"/>
      <ItemData ItemOID="IT.QSPH.QSORRES" Value="Several days"/>
      <ItemData ItemOID="IT.QSPH.QSSTRESC" Value="1"/>
      <ItemData ItemOID="IT.QSPH.QSSTRESN" Value="1"/>
      <ItemData ItemOID="IT.QSPH.QSLOBXFL" Value="Y"/>
      <ItemData ItemOID="IT.QSPH.VISITNUM" Value="3"/>
      <ItemData ItemOID="IT.QSPH.VISIT" Value="BASELINE"/>
      <ItemData ItemOID="IT.QSPH.EPOCH" Value="SCREENING"/>
      <ItemData ItemOID="IT.QSPH.QSDTC" Value="2013-09-03"/>
      <ItemData ItemOID="IT.QSPH.QSDY" Value="1"/>
      <ItemData ItemOID="IT.QSPH.QSEVLINT" Value="-P2W"/>
    </ItemGroupData>
    <ItemGroupData ItemGroupOID="IG.QSPH" data:ItemGroupDataSeq="182">
      <ItemData ItemOID="IT.QSPH.STUDYID" Value="CDISCPILOT01"/>
      <ItemData ItemOID="IT.QSPH.DOMAIN" Value="QS"/>
      <ItemData ItemOID="IT.QSPH.USUBJID" Value="CDISC012"/>
      <ItemData ItemOID="IT.QSPH.QSSEQ" Value="6"/>
      <ItemData ItemOID="IT.QSPH.QSTESTCD" Value="PHQ0106"/>
      <ItemData ItemOID="IT.QSPH.QSTEST" Value="PHQ01-Feeling Bad About Yourself"/>
      <ItemData ItemOID="IT.QSPH.QSCAT" Value="PHQ-9"/>
      <ItemData ItemOID="IT.QSPH.QSORRES" Value="Several days"/>
      <ItemData ItemOID="IT.QSPH.QSSTRESC" Value="1"/>
      <ItemData ItemOID="IT.QSPH.QSSTRESN" Value="1"/>
      <ItemData ItemOID="IT.QSPH.QSLOBXFL" Value="Y"/>
      <ItemData ItemOID="IT.QSPH.VISITNUM" Value="3"/>
      <ItemData ItemOID="IT.QSPH.VISIT" Value="BASELINE"/>
      <ItemData ItemOID="IT.QSPH.EPOCH" Value="SCREENING"/>
      <ItemData ItemOID="IT.QSPH.QSDTC" Value="2013-09-03"/>
      <ItemData ItemOID="IT.QSPH.QSDY" Value="1"/>
      <ItemData ItemOID="IT.QSPH.QSEVLINT" Value="-P2W"/>
    </ItemGroupData>
    <ItemGroupData ItemGroupOID="IG.QSPH" data:ItemGroupDataSeq="183">
