<?xml version="1.0" encoding="UTF-8"?>
<!-- Dataset-XML: Untyped Data Example  --> 
<!-- Built from the SAS XPT files published with the SDTM-MSG (SDTM Metadata Submission Guidelines) V2.0 --> 
<ODM
  xmlns="http://www.cdisc.org/ns/odm/v1.3"
  xmlns:xlink="http://www.w3.org/1999/xlink" 
  xmlns:data="http://www.cdisc.org/ns/Dataset-XML/v1.0"
  FileType="Snapshot"
  ODMVersion="1.3.2"
  data:DatasetXMLVersion="1.0.0"
  FileOID="www.cdisc.org/StudyMSGv2/1/Define-XML_2.1.0(IG.QSSL).Data(QSSL)"
  PriorFileOID="www.cdisc.org/StudyMSGv2/1/Define-XML_2.1.0"
  CreationDateTime="2020-08-21T09:21:13"
  Originator="CDISC MSG Team"
  SourceSystem="M.Hungria-System"
  SourceSystemVersion="2.1-A1"
  >
  <ClinicalData
    StudyOID="cdisc.com/CDISCPILOT01"
    MetaDataVersionOID="MDV.MSGv2.0.SDTMIG.3.3.SDTM.1.7">
    <!-- Dataset (QSSL) -->
    <ItemGroupData ItemGroupOID="IG.QSSL" data:ItemGroupDataSeq="1">
      <ItemData ItemOID="IT.QSSL.STUDYID" Value="CDISCPILOT01"/>
      <ItemData ItemOID="IT.QSSL.DOMAIN" Value="QS"/>
      <ItemData ItemOID="IT.QSSL.USUBJID" Value="CDISC001"/>
      <ItemData ItemOID="IT.QSSL.QSSEQ" Value="12"/>
      <ItemData ItemOID="IT.QSSL.QSTESTCD" Value="SWLS0101"/>
      <ItemData ItemOID="IT.QSSL.QSTEST" Value="SWLS01-My Life is Close to Ideal"/>
      <ItemData ItemOID="IT.QSSL.QSCAT" Value="SWLS"/>
      <ItemData ItemOID="IT.QSSL.QSORRES" Value="Slightly agree"/>
      <ItemData ItemOID="IT.QSSL.QSSTRESC" Value="5"/>
      <ItemData ItemOID="IT.QSSL.QSSTRESN" Value="5"/>
      <ItemData ItemOID="IT.QSSL.QSLOBXFL" Value="Y"/>
      <ItemData ItemOID="IT.QSSL.VISITNUM" Value="3"/>
      <ItemData ItemOID="IT.QSSL.VISIT" Value="BASELINE"/>
      <ItemData ItemOID="IT.QSSL.EPOCH" Value="SCREENING"/>
      <ItemData ItemOID="IT.QSSL.QSDTC" Value="2012-11-30"/>
      <ItemData ItemOID="IT.QSSL.QSDY" Value="1"/>
    </ItemGroupData>
    <ItemGroupData ItemGroupOID="IG.QSSL" data:ItemGroupDataSeq="2">
      <ItemData ItemOID="IT.QSSL.STUDYID" Value="CDISCPILOT01"/>
      <ItemData ItemOID="IT.QSSL.DOMAIN" Value="QS"/>
      <ItemData ItemOID="IT.QSSL.USUBJID" Value="CDISC001"/>
      <ItemData ItemOID="IT.QSSL.QSSEQ" Value="13"/>
      <ItemData ItemOID="IT.QSSL.QSTESTCD" Value="SWLS0102"/>
      <ItemData ItemOID="IT.QSSL.QSTEST" Value="SWLS01-My Life Conditions are Excellent"/>
      <ItemData ItemOID="IT.QSSL.QSCAT" Value="SWLS"/>
      <ItemData ItemOID="IT.QSSL.QSORRES" Value="Agree"/>
      <ItemData ItemOID="IT.QSSL.QSSTRESC" Value="6"/>
      <ItemData ItemOID="IT.QSSL.QSSTRESN" Value="6"/>
      <ItemData ItemOID="IT.QSSL.QSLOBXFL" Value="Y"/>
      <ItemData ItemOID="IT.QSSL.VISITNUM" Value="3"/>
      <ItemData ItemOID="IT.QSSL.VISIT" Value="BASELINE"/>
      <ItemData ItemOID="IT.QSSL.EPOCH" Value="SCREENING"/>
      <ItemData ItemOID="IT.QSSL.QSDTC" Value="2012-11-30"/>
      <ItemData ItemOID="IT.QSSL.QSDY" Value="1"/>
    </ItemGroupData>
    <ItemGroupData ItemGroupOID="IG.QSSL" data:ItemGroupDataSeq="3">
      <ItemData ItemOID="IT.QSSL.STUDYID" Value="CDISCPILOT01"/>
      <ItemData ItemOID="IT.QSSL.DOMAIN" Value="QS"/>
      <ItemData ItemOID="IT.QSSL.USUBJID" Value="CDISC001"/>
      <ItemData ItemOID="IT.QSSL.QSSEQ" Value="14"/>
      <ItemData ItemOID="IT.QSSL.QSTESTCD" Value="SWLS0103"/>
      <ItemData ItemOID="IT.QSSL.QSTEST" Value="SWLS01-I Am Satisfied with My Life"/>
      <ItemData ItemOID="IT.QSSL.QSCAT" Value="SWLS"/>
      <ItemData ItemOID="IT.QSSL.QSORRES" Value="Neither agree nor disagree"/>
      <ItemData ItemOID="IT.QSSL.QSSTRESC" Value="4"/>
      <ItemData ItemOID="IT.QSSL.QSSTRESN" Value="4"/>
      <ItemData ItemOID="IT.QSSL.QSLOBXFL" Value="Y"/>
      <ItemData ItemOID="IT.QSSL.VISITNUM" Value="3"/>
      <ItemData ItemOID="IT.QSSL.VISIT" Value="BASELINE"/>
      <ItemData ItemOID="IT.QSSL.EPOCH" Value="SCREENING"/>
      <ItemData ItemOID="IT.QSSL.QSDTC" Value="2012-11-30"/>
      <ItemData ItemOID="IT.QSSL.QSDY" Value="1"/>
    </ItemGroupData>
    <ItemGroupData ItemGroupOID="IG.QSSL" data:ItemGroupDataSeq="4">
      <ItemData ItemOID="IT.QSSL.STUDYID" Value="CDISCPILOT01"/>
      <ItemData ItemOID="IT.QSSL.DOMAIN" Value="QS"/>
      <ItemData ItemOID="IT.QSSL.USUBJID" Value="CDISC001"/>
      <ItemData ItemOID="IT.QSSL.QSSEQ" Value="15"/>
      <ItemData ItemOID="IT.QSSL.QSTESTCD" Value="SWLS0104"/>
      <ItemData ItemOID="IT.QSSL.QSTEST" Value="SWLS01-Have Gotten Important Things"/>
      <ItemData ItemOID="IT.QSSL.QSCAT" Value="SWLS"/>
      <ItemData ItemOID="IT.QSSL.QSORRES" Value="Agree"/>
      <ItemData ItemOID="IT.QSSL.QSSTRESC" Value="6"/>
      <ItemData ItemOID="IT.QSSL.QSSTRESN" Value="6"/>
      <ItemData ItemOID="IT.QSSL.QSLOBXFL" Value="Y"/>
      <ItemData ItemOID="IT.QSSL.VISITNUM" Value="3"/>
      <ItemData ItemOID="IT.QSSL.VISIT" Value="BASELINE"/>
      <ItemData ItemOID="IT.QSSL.EPOCH" Value="SCREENING"/>
      <ItemData ItemOID="IT.QSSL.QSDTC" Value="2012-11-30"/>
      <ItemData ItemOID="IT.QSSL.QSDY" Value="1"/>
    </ItemGroupData>
    <ItemGroupData ItemGroupOID="IG.QSSL" data:ItemGroupDataSeq="5">
      <ItemData ItemOID="IT.QSSL.STUDYID" Value="CDISCPILOT01"/>
      <ItemData ItemOID="IT.QSSL.DOMAIN" Value="QS"/>
      <ItemData ItemOID="IT.QSSL.USUBJID" Value="CDISC001"/>
      <ItemData ItemOID="IT.QSSL.QSSEQ" Value="16"/>
      <ItemData ItemOID="IT.QSSL.QSTESTCD" Value="SWLS0105"/>
      <ItemData ItemOID="IT.QSSL.QSTEST" Value="SWLS01-Live Life Over Change Nothing"/>
      <ItemData ItemOID="IT.QSSL.QSCAT" Value="SWLS"/>
      <ItemData ItemOID="IT.QSSL.QSORRES" Value="Agree"/>
      <ItemData ItemOID="IT.QSSL.QSSTRESC" Value="6"/>
      <ItemData ItemOID="IT.QSSL.QSSTRESN" Value="6"/>
      <ItemData ItemOID="IT.QSSL.QSLOBXFL" Value="Y"/>
      <ItemData ItemOID="IT.QSSL.VISITNUM" Value="3"/>
      <ItemData ItemOID="IT.QSSL.VISIT" Value="BASELINE"/>
      <ItemData ItemOID="IT.QSSL.EPOCH" Value="SCREENING"/>
      <ItemData ItemOID="IT.QSSL.QSDTC" Value="2012-11-30"/>
      <ItemData ItemOID="IT.QSSL.QSDY" Value="1"/>
    </ItemGroupData>
    <ItemGroupData ItemGroupOID="IG.QSSL" data:ItemGroupDataSeq="6">
      <ItemData ItemOID="IT.QSSL.STUDYID" Value="CDISCPILOT01"/>
      <ItemData ItemOID="IT.QSSL.DOMAIN" Value="QS"/>
      <ItemData ItemOID="IT.QSSL.USUBJID" Value="CDISC001"/>
      <ItemData ItemOID="IT.QSSL.QSSEQ" Value="28"/>
      <ItemData ItemOID="IT.QSSL.QSTESTCD" Value="SWLS0101"/>
      <ItemData ItemOID="IT.QSSL.QSTEST" Value="SWLS01-My Life is Close to Ideal"/>
      <ItemData ItemOID="IT.QSSL.QSCAT" Value="SWLS"/>
      <ItemData ItemOID="IT.QSSL.QSORRES" Value="Agree"/>
      <ItemData ItemOID="IT.QSSL.QSSTRESC" Value="6"/>
      <ItemData ItemOID="IT.QSSL.QSSTRESN" Value="6"/>
      <ItemData ItemOID="IT.QSSL.VISITNUM" Value="201"/>
      <ItemData ItemOID="IT.QSSL.VISIT" Value="EARLY DISCONTINUATION RETRIEVAL"/>
      <ItemData ItemOID="IT.QSSL.EPOCH" Value="TREATMENT"/>
      <ItemData ItemOID="IT.QSSL.QSDTC" Value="2013-05-20"/>
      <ItemData ItemOID="IT.QSSL.QSDY" Value="172"/>
    </ItemGroupData>
    <ItemGroupData ItemGroupOID="IG.QSSL" data:ItemGroupDataSeq="7">
      <ItemData ItemOID="IT.QSSL.STUDYID" Value="CDISCPILOT01"/>
      <ItemData ItemOID="IT.QSSL.DOMAIN" Value="QS"/>
      <ItemData ItemOID="IT.QSSL.USUBJID" Value="CDISC001"/>
      <ItemData ItemOID="IT.QSSL.QSSEQ" Value="29"/>
      <ItemData ItemOID="IT.QSSL.QSTESTCD" Value="SWLS0102"/>
      <ItemData ItemOID="IT.QSSL.QSTEST" Value="SWLS01-My Life Conditions are Excellent"/>
      <ItemData ItemOID="IT.QSSL.QSCAT" Value="SWLS"/>
      <ItemData ItemOID="IT.QSSL.QSORRES" Value="Agree"/>
      <ItemData ItemOID="IT.QSSL.QSSTRESC" Value="6"/>
      <ItemData ItemOID="IT.QSSL.QSSTRESN" Value="6"/>
      <ItemData ItemOID="IT.QSSL.VISITNUM" Value="201"/>
      <ItemData ItemOID="IT.QSSL.VISIT" Value="EARLY DISCONTINUATION RETRIEVAL"/>
      <ItemData ItemOID="IT.QSSL.EPOCH" Value="TREATMENT"/>
      <ItemData ItemOID="IT.QSSL.QSDTC" Value="2013-05-20"/>
      <ItemData ItemOID="IT.QSSL.QSDY" Value="172"/>
    </ItemGroupData>
    <ItemGroupData ItemGroupOID="IG.QSSL" data:ItemGroupDataSeq="8">
      <ItemData ItemOID="IT.QSSL.STUDYID" Value="CDISCPILOT01"/>
      <ItemData ItemOID="IT.QSSL.DOMAIN" Value="QS"/>
      <ItemData ItemOID="IT.QSSL.USUBJID" Value="CDISC001"/>
      <ItemData ItemOID="IT.QSSL.QSSEQ" Value="30"/>
      <ItemData ItemOID="IT.QSSL.QSTESTCD" Value="SWLS0103"/>
      <ItemData ItemOID="IT.QSSL.QSTEST" Value="SWLS01-I Am Satisfied with My Life"/>
      <ItemData ItemOID="IT.QSSL.QSCAT" Value="SWLS"/>
      <ItemData ItemOID="IT.QSSL.QSORRES" Value="Slightly agree"/>
      <ItemData ItemOID="IT.QSSL.QSSTRESC" Value="5"/>
      <ItemData ItemOID="IT.QSSL.QSSTRESN" Value="5"/>
      <ItemData ItemOID="IT.QSSL.VISITNUM" Value="201"/>
      <ItemData ItemOID="IT.QSSL.VISIT" Value="EARLY DISCONTINUATION RETRIEVAL"/>
      <ItemData ItemOID="IT.QSSL.EPOCH" Value="TREATMENT"/>
      <ItemData ItemOID="IT.QSSL.QSDTC" Value="2013-05-20"/>
      <ItemData ItemOID="IT.QSSL.QSDY" Value="172"/>
    </ItemGroupData>
    <ItemGroupData ItemGroupOID="IG.QSSL" data:ItemGroupDataSeq="9">
      <ItemData ItemOID="IT.QSSL.STUDYID" Value="CDISCPILOT01"/>
      <ItemData ItemOID="IT.QSSL.DOMAIN" Value="QS"/>
      <ItemData ItemOID="IT.QSSL.USUBJID" Value="CDISC001"/>
      <ItemData ItemOID="IT.QSSL.QSSEQ" Value="31"/>
      <ItemData ItemOID="IT.QSSL.QSTESTCD" Value="SWLS0104"/>
      <ItemData ItemOID="IT.QSSL.QSTEST" Value="SWLS01-Have Gotten Important Things"/>
      <ItemData ItemOID="IT.QSSL.QSCAT" Value="SWLS"/>
      <ItemData ItemOID="IT.QSSL.QSORRES" Value="Agree"/>
      <ItemData ItemOID="IT.QSSL.QSSTRESC" Value="6"/>
      <ItemData ItemOID="IT.QSSL.QSSTRESN" Value="6"/>
      <ItemData ItemOID="IT.QSSL.VISITNUM" Value="201"/>
      <ItemData ItemOID="IT.QSSL.VISIT" Value="EARLY DISCONTINUATION RETRIEVAL"/>
      <ItemData ItemOID="IT.QSSL.EPOCH" Value="TREATMENT"/>
      <ItemData ItemOID="IT.QSSL.QSDTC" Value="2013-05-20"/>
      <ItemData ItemOID="IT.QSSL.QSDY" Value="172"/>
    </ItemGroupData>
    <ItemGroupData ItemGroupOID="IG.QSSL" data:ItemGroupDataSeq="10">
      <ItemData ItemOID="IT.QSSL.STUDYID" Value="CDISCPILOT01"/>
      <ItemData ItemOID="IT.QSSL.DOMAIN" Value="QS"/>
      <ItemData ItemOID="IT.QSSL.USUBJID" Value="CDISC001"/>
      <ItemData ItemOID="IT.QSSL.QSSEQ" Value="32"/>
      <ItemData ItemOID="IT.QSSL.QSTESTCD" Value="SWLS0105"/>
      <ItemData ItemOID="IT.QSSL.QSTEST" Value="SWLS01-Live Life Over Change Nothing"/>
      <ItemData ItemOID="IT.QSSL.QSCAT" Value="SWLS"/>
      <ItemData ItemOID="IT.QSSL.QSORRES" Value="Agree"/>
      <ItemData ItemOID="IT.QSSL.QSSTRESC" Value="6"/>
      <ItemData ItemOID="IT.QSSL.QSSTRESN" Value="6"/>
      <ItemData ItemOID="IT.QSSL.VISITNUM" Value="201"/>
      <ItemData ItemOID="IT.QSSL.VISIT" Value="EARLY DISCONTINUATION RETRIEVAL"/>
      <ItemData ItemOID="IT.QSSL.EPOCH" Value="TREATMENT"/>
      <ItemData ItemOID="IT.QSSL.QSDTC" Value="2013-05-20"/>
      <ItemData ItemOID="IT.QSSL.QSDY" Value="172"/>
    </ItemGroupData>
    <ItemGroupData ItemGroupOID="IG.QSSL" data:ItemGroupDataSeq="11">
      <ItemData ItemOID="IT.QSSL.STUDYID" Value="CDISCPILOT01"/>
      <ItemData ItemOID="IT.QSSL.DOMAIN" Value="QS"/>
      <ItemData ItemOID="IT.QSSL.USUBJID" Value="CDISC002"/>
      <ItemData ItemOID="IT.QSSL.QSSEQ" Value="12"/>
      <ItemData ItemOID="IT.QSSL.QSTESTCD" Value="SWLS0101"/>
      <ItemData ItemOID="IT.QSSL.QSTEST" Value="SWLS01-My Life is Close to Ideal"/>
      <ItemData ItemOID="IT.QSSL.QSCAT" Value="SWLS"/>
      <ItemData ItemOID="IT.QSSL.QSORRES" Value="Neither agree nor disagree"/>
      <ItemData ItemOID="IT.QSSL.QSSTRESC" Value="4"/>
      <ItemData ItemOID="IT.QSSL.QSSTRESN" Value="4"/>
      <ItemData ItemOID="IT.QSSL.QSLOBXFL" Value="Y"/>
      <ItemData ItemOID="IT.QSSL.VISITNUM" Value="3"/>
      <ItemData ItemOID="IT.QSSL.VISIT" Value="BASELINE"/>
      <ItemData ItemOID="IT.QSSL.EPOCH" Value="SCREENING"/>
      <ItemData ItemOID="IT.QSSL.QSDTC" Value="2012-11-15"/>
      <ItemData ItemOID="IT.QSSL.QSDY" Value="1"/>
    </ItemGroupData>
    <ItemGroupData ItemGroupOID="IG.QSSL" data:ItemGroupDataSeq="12">
      <ItemData ItemOID="IT.QSSL.STUDYID" Value="CDISCPILOT01"/>
      <ItemData ItemOID="IT.QSSL.DOMAIN" Value="QS"/>
      <ItemData ItemOID="IT.QSSL.USUBJID" Value="CDISC002"/>
      <ItemData ItemOID="IT.QSSL.QSSEQ" Value="13"/>
      <ItemData ItemOID="IT.QSSL.QSTESTCD" Value="SWLS0102"/>
      <ItemData ItemOID="IT.QSSL.QSTEST" Value="SWLS01-My Life Conditions are Excellent"/>
      <ItemData ItemOID="IT.QSSL.QSCAT" Value="SWLS"/>
      <ItemData ItemOID="IT.QSSL.QSORRES" Value="Slightly disagree"/>
      <ItemData ItemOID="IT.QSSL.QSSTRESC" Value="3"/>
      <ItemData ItemOID="IT.QSSL.QSSTRESN" Value="3"/>
      <ItemData ItemOID="IT.QSSL.QSLOBXFL" Value="Y"/>
      <ItemData ItemOID="IT.QSSL.VISITNUM" Value="3"/>
      <ItemData ItemOID="IT.QSSL.VISIT" Value="BASELINE"/>
      <ItemData ItemOID="IT.QSSL.EPOCH" Value="SCREENING"/>
      <ItemData ItemOID="IT.QSSL.QSDTC" Value="2012-11-15"/>
      <ItemData ItemOID="IT.QSSL.QSDY" Value="1"/>
    </ItemGroupData>
    <ItemGroupData ItemGroupOID="IG.QSSL" data:ItemGroupDataSeq="13">
      <ItemData ItemOID="IT.QSSL.STUDYID" Value="CDISCPILOT01"/>
      <ItemData ItemOID="IT.QSSL.DOMAIN" Value="QS"/>
      <ItemData ItemOID="IT.QSSL.USUBJID" Value="CDISC002"/>
      <ItemData ItemOID="IT.QSSL.QSSEQ" Value="14"/>
      <ItemData ItemOID="IT.QSSL.QSTESTCD" Value="SWLS0103"/>
      <ItemData ItemOID="IT.QSSL.QSTEST" Value="SWLS01-I Am Satisfied with My Life"/>
      <ItemData ItemOID="IT.QSSL.QSCAT" Value="SWLS"/>
      <ItemData ItemOID="IT.QSSL.QSORRES" Value="Neither agree nor disagree"/>
      <ItemData ItemOID="IT.QSSL.QSSTRESC" Value="4"/>
      <ItemData ItemOID="IT.QSSL.QSSTRESN" Value="4"/>
      <ItemData ItemOID="IT.QSSL.QSLOBXFL" Value="Y"/>
      <ItemData ItemOID="IT.QSSL.VISITNUM" Value="3"/>
      <ItemData ItemOID="IT.QSSL.VISIT" Value="BASELINE"/>
      <ItemData ItemOID="IT.QSSL.EPOCH" Value="SCREENING"/>
      <ItemData ItemOID="IT.QSSL.QSDTC" Value="2012-11-15"/>
      <ItemData ItemOID="IT.QSSL.QSDY" Value="1"/>
    </ItemGroupData>
    <ItemGroupData ItemGroupOID="IG.QSSL" data:ItemGroupDataSeq="14">
      <ItemData ItemOID="IT.QSSL.STUDYID" Value="CDISCPILOT01"/>
      <ItemData ItemOID="IT.QSSL.DOMAIN" Value="QS"/>
      <ItemData ItemOID="IT.QSSL.USUBJID" Value="CDISC002"/>
      <ItemData ItemOID="IT.QSSL.QSSEQ" Value="15"/>
      <ItemData ItemOID="IT.QSSL.QSTESTCD" Value="SWLS0104"/>
      <ItemData ItemOID="IT.QSSL.QSTEST" Value="SWLS01-Have Gotten Important Things"/>
      <ItemData ItemOID="IT.QSSL.QSCAT" Value="SWLS"/>
      <ItemData ItemOID="IT.QSSL.QSORRES" Value="Neither agree nor disagree"/>
      <ItemData ItemOID="IT.QSSL.QSSTRESC" Value="4"/>
      <ItemData ItemOID="IT.QSSL.QSSTRESN" Value="4"/>
      <ItemData ItemOID="IT.QSSL.QSLOBXFL" Value="Y"/>
      <ItemData ItemOID="IT.QSSL.VISITNUM" Value="3"/>
      <ItemData ItemOID="IT.QSSL.VISIT" Value="BASELINE"/>
      <ItemData ItemOID="IT.QSSL.EPOCH" Value="SCREENING"/>
      <ItemData ItemOID="IT.QSSL.QSDTC" Value="2012-11-15"/>
      <ItemData ItemOID="IT.QSSL.QSDY" Value="1"/>
    </ItemGroupData>
    <ItemGroupData ItemGroupOID="IG.QSSL" data:ItemGroupDataSeq="15">
      <ItemData ItemOID="IT.QSSL.STUDYID" Value="CDISCPILOT01"/>
      <ItemData ItemOID="IT.QSSL.DOMAIN" Value="QS"/>
      <ItemData ItemOID="IT.QSSL.USUBJID" Value="CDISC002"/>
      <ItemData ItemOID="IT.QSSL.QSSEQ" Value="16"/>
      <ItemData ItemOID="IT.QSSL.QSTESTCD" Value="SWLS0105"/>
      <ItemData ItemOID="IT.QSSL.QSTEST" Value="SWLS01-Live Life Over Change Nothing"/>
      <ItemData ItemOID="IT.QSSL.QSCAT" Value="SWLS"/>
      <ItemData ItemOID="IT.QSSL.QSORRES" Value="Neither agree nor disagree"/>
      <ItemData ItemOID="IT.QSSL.QSSTRESC" Value="4"/>
      <ItemData ItemOID="IT.QSSL.QSSTRESN" Value="4"/>
      <ItemData ItemOID="IT.QSSL.QSLOBXFL" Value="Y"/>
      <ItemData ItemOID="IT.QSSL.VISITNUM" Value="3"/>
      <ItemData ItemOID="IT.QSSL.VISIT" Value="BASELINE"/>
      <ItemData ItemOID="IT.QSSL.EPOCH" Value="SCREENING"/>
      <ItemData ItemOID="IT.QSSL.QSDTC" Value="2012-11-15"/>
      <ItemData ItemOID="IT.QSSL.QSDY" Value="1"/>
    </ItemGroupData>
    <ItemGroupData ItemGroupOID="IG.QSSL" data:ItemGroupDataSeq="16">
      <ItemData ItemOID="IT.QSSL.STUDYID" Value="CDISCPILOT01"/>
      <ItemData ItemOID="IT.QSSL.DOMAIN" Value="QS"/>
      <ItemData ItemOID="IT.QSSL.USUBJID" Value="CDISC003"/>
      <ItemData ItemOID="IT.QSSL.QSSEQ" Value="12"/>
      <ItemData ItemOID="IT.QSSL.QSTESTCD" Value="SWLS0101"/>
      <ItemData ItemOID="IT.QSSL.QSTEST" Value="SWLS01-My Life is Close to Ideal"/>
      <ItemData ItemOID="IT.QSSL.QSCAT" Value="SWLS"/>
      <ItemData ItemOID="IT.QSSL.QSORRES" Value="Neither agree nor disagree"/>
      <ItemData ItemOID="IT.QSSL.QSSTRESC" Value="4"/>
      <ItemData ItemOID="IT.QSSL.QSSTRESN" Value="4"/>
      <ItemData ItemOID="IT.QSSL.QSLOBXFL" Value="Y"/>
      <ItemData ItemOID="IT.QSSL.VISITNUM" Value="3"/>
      <ItemData ItemOID="IT.QSSL.VISIT" Value="BASELINE"/>
      <ItemData ItemOID="IT.QSSL.EPOCH" Value="SCREENING"/>
      <ItemData ItemOID="IT.QSSL.QSDTC" Value="2013-08-29"/>
      <ItemData ItemOID="IT.QSSL.QSDY" Value="1"/>
    </ItemGroupData>
    <ItemGroupData ItemGroupOID="IG.QSSL" data:ItemGroupDataSeq="17">
      <ItemData ItemOID="IT.QSSL.STUDYID" Value="CDISCPILOT01"/>
      <ItemData ItemOID="IT.QSSL.DOMAIN" Value="QS"/>
      <ItemData ItemOID="IT.QSSL.USUBJID" Value="CDISC003"/>
      <ItemData ItemOID="IT.QSSL.QSSEQ" Value="13"/>
      <ItemData ItemOID="IT.QSSL.QSTESTCD" Value="SWLS0102"/>
      <ItemData ItemOID="IT.QSSL.QSTEST" Value="SWLS01-My Life Conditions are Excellent"/>
      <ItemData ItemOID="IT.QSSL.QSCAT" Value="SWLS"/>
      <ItemData ItemOID="IT.QSSL.QSORRES" Value="Slightly agree"/>
      <ItemData ItemOID="IT.QSSL.QSSTRESC" Value="5"/>
      <ItemData ItemOID="IT.QSSL.QSSTRESN" Value="5"/>
      <ItemData ItemOID="IT.QSSL.QSLOBXFL" Value="Y"/>
      <ItemData ItemOID="IT.QSSL.VISITNUM" Value="3"/>
      <ItemData ItemOID="IT.QSSL.VISIT" Value="BASELINE"/>
      <ItemData ItemOID="IT.QSSL.EPOCH" Value="SCREENING"/>
      <ItemData ItemOID="IT.QSSL.QSDTC" Value="2013-08-29"/>
      <ItemData ItemOID="IT.QSSL.QSDY" Value="1"/>
    </ItemGroupData>
    <ItemGroupData ItemGroupOID="IG.QSSL" data:ItemGroupDataSeq="18">
      <ItemData ItemOID="IT.QSSL.STUDYID" Value="CDISCPILOT01"/>
      <ItemData ItemOID="IT.QSSL.DOMAIN" Value="QS"/>
      <ItemData ItemOID="IT.QSSL.USUBJID" Value="CDISC003"/>
      <ItemData ItemOID="IT.QSSL.QSSEQ" Value="14"/>
      <ItemData ItemOID="IT.QSSL.QSTESTCD" Value="SWLS0103"/>
      <ItemData ItemOID="IT.QSSL.QSTEST" Value="SWLS01-I Am Satisfied with My Life"/>
      <ItemData ItemOID="IT.QSSL.QSCAT" Value="SWLS"/>
      <ItemData ItemOID="IT.QSSL.QSORRES" Value="Agree"/>
      <ItemData ItemOID="IT.QSSL.QSSTRESC" Value="6"/>
      <ItemData ItemOID="IT.QSSL.QSSTRESN" Value="6"/>
      <ItemData ItemOID="IT.QSSL.QSLOBXFL" Value="Y"/>
      <ItemData ItemOID="IT.QSSL.VISITNUM" Value="3"/>
      <ItemData ItemOID="IT.QSSL.VISIT" Value="BASELINE"/>
      <ItemData ItemOID="IT.QSSL.EPOCH" Value="SCREENING"/>
      <ItemData ItemOID="IT.QSSL.QSDTC" Value="2013-08-29"/>
      <ItemData ItemOID="IT.QSSL.QSDY" Value="1"/>
    </ItemGroupData>
    <ItemGroupData ItemGroupOID="IG.QSSL" data:ItemGroupDataSeq="19">
      <ItemData ItemOID="IT.QSSL.STUDYID" Value="CDISCPILOT01"/>
      <ItemData ItemOID="IT.QSSL.DOMAIN" Value="QS"/>
      <ItemData ItemOID="IT.QSSL.USUBJID" Value="CDISC003"/>
      <ItemData ItemOID="IT.QSSL.QSSEQ" Value="15"/>
      <ItemData ItemOID="IT.QSSL.QSTESTCD" Value="SWLS0104"/>
      <ItemData ItemOID="IT.QSSL.QSTEST" Value="SWLS01-Have Gotten Important Things"/>
      <ItemData ItemOID="IT.QSSL.QSCAT" Value="SWLS"/>
      <ItemData ItemOID="IT.QSSL.QSORRES" Value="Slightly agree"/>
      <ItemData ItemOID="IT.QSSL.QSSTRESC" Value="5"/>
      <ItemData ItemOID="IT.QSSL.QSSTRESN" Value="5"/>
      <ItemData ItemOID="IT.QSSL.QSLOBXFL" Value="Y"/>
      <ItemData ItemOID="IT.QSSL.VISITNUM" Value="3"/>
      <ItemData ItemOID="IT.QSSL.VISIT" Value="BASELINE"/>
      <ItemData ItemOID="IT.QSSL.EPOCH" Value="SCREENING"/>
      <ItemData ItemOID="IT.QSSL.QSDTC" Value="2013-08-29"/>
      <ItemData ItemOID="IT.QSSL.QSDY" Value="1"/>
    </ItemGroupData>
    <ItemGroupData ItemGroupOID="IG.QSSL" data:ItemGroupDataSeq="20">
      <ItemData ItemOID="IT.QSSL.STUDYID" Value="CDISCPILOT01"/>
      <ItemData ItemOID="IT.QSSL.DOMAIN" Value="QS"/>
      <ItemData ItemOID="IT.QSSL.USUBJID" Value="CDISC003"/>
      <ItemData ItemOID="IT.QSSL.QSSEQ" Value="16"/>
      <ItemData ItemOID="IT.QSSL.QSTESTCD" Value="SWLS0105"/>
      <ItemData ItemOID="IT.QSSL.QSTEST" Value="SWLS01-Live Life Over Change Nothing"/>
      <ItemData ItemOID="IT.QSSL.QSCAT" Value="SWLS"/>
      <ItemData ItemOID="IT.QSSL.QSORRES" Value="Agree"/>
      <ItemData ItemOID="IT.QSSL.QSSTRESC" Value="6"/>
      <ItemData ItemOID="IT.QSSL.QSSTRESN" Value="6"/>
      <ItemData ItemOID="IT.QSSL.QSLOBXFL" Value="Y"/>
      <ItemData ItemOID="IT.QSSL.VISITNUM" Value="3"/>
      <ItemData ItemOID="IT.QSSL.VISIT" Value="BASELINE"/>
      <ItemData ItemOID="IT.QSSL.EPOCH" Value="SCREENING"/>
      <ItemData ItemOID="IT.QSSL.QSDTC" Value="2013-08-29"/>
      <ItemData ItemOID="IT.QSSL.QSDY" Value="1"/>
    </ItemGroupData>
    <ItemGroupData ItemGroupOID="IG.QSSL" data:ItemGroupDataSeq="21">
      <ItemData ItemOID="IT.QSSL.STUDYID" Value="CDISCPILOT01"/>
      <ItemData ItemOID="IT.QSSL.DOMAIN" Value="QS"/>
      <ItemData ItemOID="IT.QSSL.USUBJID" Value="CDISC003"/>
      <ItemData ItemOID="IT.QSSL.QSSEQ" Value="28"/>
      <ItemData ItemOID="IT.QSSL.QSTESTCD" Value="SWLS0101"/>
      <ItemData ItemOID="IT.QSSL.QSTEST" Value="SWLS01-My Life is Close to Ideal"/>
      <ItemData ItemOID="IT.QSSL.QSCAT" Value="SWLS"/>
      <ItemData ItemOID="IT.QSSL.QSORRES" Value="Slightly agree"/>
      <ItemData ItemOID="IT.QSSL.QSSTRESC" Value="5"/>
      <ItemData ItemOID="IT.QSSL.QSSTRESN" Value="5"/>
      <ItemData ItemOID="IT.QSSL.VISITNUM" Value="9"/>
      <ItemData ItemOID="IT.QSSL.VISIT" Value="WEEK 12"/>
      <ItemData ItemOID="IT.QSSL.EPOCH" Value="TREATMENT"/>
      <ItemData ItemOID="IT.QSSL.QSDTC" Value="2013-11-05"/>
      <ItemData ItemOID="IT.QSSL.QSDY" Value="69"/>
    </ItemGroupData>
    <ItemGroupData ItemGroupOID="IG.QSSL" data:ItemGroupDataSeq="22">
      <ItemData ItemOID="IT.QSSL.STUDYID" Value="CDISCPILOT01"/>
      <ItemData ItemOID="IT.QSSL.DOMAIN" Value="QS"/>
      <ItemData ItemOID="IT.QSSL.USUBJID" Value="CDISC003"/>
      <ItemData ItemOID="IT.QSSL.QSSEQ" Value="29"/>
      <ItemData ItemOID="IT.QSSL.QSTESTCD" Value="SWLS0102"/>
      <ItemData ItemOID="IT.QSSL.QSTEST" Value="SWLS01-My Life Conditions are Excellent"/>
      <ItemData ItemOID="IT.QSSL.QSCAT" Value="SWLS"/>
      <ItemData ItemOID="IT.QSSL.QSORRES" Value="Slightly agree"/>
      <ItemData ItemOID="IT.QSSL.QSSTRESC" Value="5"/>
      <ItemData ItemOID="IT.QSSL.QSSTRESN" Value="5"/>
      <ItemData ItemOID="IT.QSSL.VISITNUM" Value="9"/>
      <ItemData ItemOID="IT.QSSL.VISIT" Value="WEEK 12"/>
      <ItemData ItemOID="IT.QSSL.EPOCH" Value="TREATMENT"/>
      <ItemData ItemOID="IT.QSSL.QSDTC" Value="2013-11-05"/>
      <ItemData ItemOID="IT.QSSL.QSDY" Value="69"/>
    </ItemGroupData>
    <ItemGroupData ItemGroupOID="IG.QSSL" data:ItemGroupDataSeq="23">
      <ItemData ItemOID="IT.QSSL.STUDYID" Value="CDISCPILOT01"/>
      <ItemData ItemOID="IT.QSSL.DOMAIN" Value="QS"/>
      <ItemData ItemOID="IT.QSSL.USUBJID" Value="CDISC003"/>
      <ItemData ItemOID="IT.QSSL.QSSEQ" Value="30"/>
      <ItemData ItemOID="IT.QSSL.QSTESTCD" Value="SWLS0103"/>
      <ItemData ItemOID="IT.QSSL.QSTEST" Value="SWLS01-I Am Satisfied with My Life"/>
      <ItemData ItemOID="IT.QSSL.QSCAT" Value="SWLS"/>
      <ItemData ItemOID="IT.QSSL.QSORRES" Value="Agree"/>
      <ItemData ItemOID="IT.QSSL.QSSTRESC" Value="6"/>
      <ItemData ItemOID="IT.QSSL.QSSTRESN" Value="6"/>
      <ItemData ItemOID="IT.QSSL.VISITNUM" Value="9"/>
      <ItemData ItemOID="IT.QSSL.VISIT" Value="WEEK 12"/>
      <ItemData ItemOID="IT.QSSL.EPOCH" Value="TREATMENT"/>
      <ItemData ItemOID="IT.QSSL.QSDTC" Value="2013-11-05"/>
      <ItemData ItemOID="IT.QSSL.QSDY" Value="69"/>
    </ItemGroupData>
    <ItemGroupData ItemGroupOID="IG.QSSL" data:ItemGroupDataSeq="24">
      <ItemData ItemOID="IT.QSSL.STUDYID" Value="CDISCPILOT01"/>
      <ItemData ItemOID="IT.QSSL.DOMAIN" Value="QS"/>
      <ItemData ItemOID="IT.QSSL.USUBJID" Value="CDISC003"/>
      <ItemData ItemOID="IT.QSSL.QSSEQ" Value="31"/>
      <ItemData ItemOID="IT.QSSL.QSTESTCD" Value="SWLS0104"/>
      <ItemData ItemOID="IT.QSSL.QSTEST" Value="SWLS01-Have Gotten Important Things"/>
      <ItemData ItemOID="IT.QSSL.QSCAT" Value="SWLS"/>
      <ItemData ItemOID="IT.QSSL.QSORRES" Value="Slightly agree"/>
      <ItemData ItemOID="IT.QSSL.QSSTRESC" Value="5"/>
      <ItemData ItemOID="IT.QSSL.QSSTRESN" Value="5"/>
      <ItemData ItemOID="IT.QSSL.VISITNUM" Value="9"/>
      <ItemData ItemOID="IT.QSSL.VISIT" Value="WEEK 12"/>
      <ItemData ItemOID="IT.QSSL.EPOCH" Value="TREATMENT"/>
      <ItemData ItemOID="IT.QSSL.QSDTC" Value="2013-11-05"/>
      <ItemData ItemOID="IT.QSSL.QSDY" Value="69"/>
    </ItemGroupData>
    <ItemGroupData ItemGroupOID="IG.QSSL" data:ItemGroupDataSeq="25">
      <ItemData ItemOID="IT.QSSL.STUDYID" Value="CDISCPILOT01"/>
      <ItemData ItemOID="IT.QSSL.DOMAIN" Value="QS"/>
      <ItemData ItemOID="IT.QSSL.USUBJID" Value="CDISC003"/>
      <ItemData ItemOID="IT.QSSL.QSSEQ" Value="32"/>
      <ItemData ItemOID="IT.QSSL.QSTESTCD" Value="SWLS0105"/>
      <ItemData ItemOID="IT.QSSL.QSTEST" Value="SWLS01-Live Life Over Change Nothing"/>
      <ItemData ItemOID="IT.QSSL.QSCAT" Value="SWLS"/>
      <ItemData ItemOID="IT.QSSL.QSORRES" Value="Agree"/>
      <ItemData ItemOID="IT.QSSL.QSSTRESC" Value="6"/>
      <ItemData ItemOID="IT.QSSL.QSSTRESN" Value="6"/>
      <ItemData ItemOID="IT.QSSL.VISITNUM" Value="9"/>
      <ItemData ItemOID="IT.QSSL.VISIT" Value="WEEK 12"/>
      <ItemData ItemOID="IT.QSSL.EPOCH" Value="TREATMENT"/>
      <ItemData ItemOID="IT.QSSL.QSDTC" Value="2013-11-05"/>
      <ItemData ItemOID="IT.QSSL.QSDY" Value="69"/>
    </ItemGroupData>
    <ItemGroupData ItemGroupOID="IG.QSSL" data:ItemGroupDataSeq="26">
      <ItemData ItemOID="IT.QSSL.STUDYID" Value="CDISCPILOT01"/>
      <ItemData ItemOID="IT.QSSL.DOMAIN" Value="QS"/>
      <ItemData ItemOID="IT.QSSL.USUBJID" Value="CDISC003"/>
      <ItemData ItemOID="IT.QSSL.QSSEQ" Value="44"/>
      <ItemData ItemOID="IT.QSSL.QSTESTCD" Value="SWLS0101"/>
      <ItemData ItemOID="IT.QSSL.QSTEST" Value="SWLS01-My Life is Close to Ideal"/>
      <ItemData ItemOID="IT.QSSL.QSCAT" Value="SWLS"/>
      <ItemData ItemOID="IT.QSSL.QSORRES" Value="Slightly agree"/>
      <ItemData ItemOID="IT.QSSL.QSSTRESC" Value="5"/>
      <ItemData ItemOID="IT.QSSL.QSSTRESN" Value="5"/>
      <ItemData ItemOID="IT.QSSL.VISITNUM" Value="201"/>
      <ItemData ItemOID="IT.QSSL.VISIT" Value="EARLY DISCONTINUATION RETRIEVAL"/>
      <ItemData ItemOID="IT.QSSL.EPOCH" Value="TREATMENT"/>
      <ItemData ItemOID="IT.QSSL.QSDTC" Value="2014-02-13"/>
      <ItemData ItemOID="IT.QSSL.QSDY" Value="169"/>
    </ItemGroupData>
    <ItemGroupData ItemGroupOID="IG.QSSL" data:ItemGroupDataSeq="27">
      <ItemData ItemOID="IT.QSSL.STUDYID" Value="CDISCPILOT01"/>
      <ItemData ItemOID="IT.QSSL.DOMAIN" Value="QS"/>
      <ItemData ItemOID="IT.QSSL.USUBJID" Value="CDISC003"/>
      <ItemData ItemOID="IT.QSSL.QSSEQ" Value="45"/>
      <ItemData ItemOID="IT.QSSL.QSTESTCD" Value="SWLS0102"/>
      <ItemData ItemOID="IT.QSSL.QSTEST" Value="SWLS01-My Life Conditions are Excellent"/>
      <ItemData ItemOID="IT.QSSL.QSCAT" Value="SWLS"/>
      <ItemData ItemOID="IT.QSSL.QSORRES" Value="Slightly agree"/>
      <ItemData ItemOID="IT.QSSL.QSSTRESC" Value="5"/>
      <ItemData ItemOID="IT.QSSL.QSSTRESN" Value="5"/>
      <ItemData ItemOID="IT.QSSL.VISITNUM" Value="201"/>
      <ItemData ItemOID="IT.QSSL.VISIT" Value="EARLY DISCONTINUATION RETRIEVAL"/>
      <ItemData ItemOID="IT.QSSL.EPOCH" Value="TREATMENT"/>
      <ItemData ItemOID="IT.QSSL.QSDTC" Value="2014-02-13"/>
      <ItemData ItemOID="IT.QSSL.QSDY" Value="169"/>
    </ItemGroupData>
    <ItemGroupData ItemGroupOID="IG.QSSL" data:ItemGroupDataSeq="28">
      <ItemData ItemOID="IT.QSSL.STUDYID" Value="CDISCPILOT01"/>
      <ItemData ItemOID="IT.QSSL.DOMAIN" Value="QS"/>
      <ItemData ItemOID="IT.QSSL.USUBJID" Value="CDISC003"/>
      <ItemData ItemOID="IT.QSSL.QSSEQ" Value="46"/>
      <ItemData ItemOID="IT.QSSL.QSTESTCD" Value="SWLS0103"/>
      <ItemData ItemOID="IT.QSSL.QSTEST" Value="SWLS01-I Am Satisfied with My Life"/>
      <ItemData ItemOID="IT.QSSL.QSCAT" Value="SWLS"/>
      <ItemData ItemOID="IT.QSSL.QSORRES" Value="Agree"/>
      <ItemData ItemOID="IT.QSSL.QSSTRESC" Value="6"/>
      <ItemData ItemOID="IT.QSSL.QSSTRESN" Value="6"/>
      <ItemData ItemOID="IT.QSSL.VISITNUM" Value="201"/>
      <ItemData ItemOID="IT.QSSL.VISIT" Value="EARLY DISCONTINUATION RETRIEVAL"/>
      <ItemData ItemOID="IT.QSSL.EPOCH" Value="TREATMENT"/>
      <ItemData ItemOID="IT.QSSL.QSDTC" Value="2014-02-13"/>
      <ItemData ItemOID="IT.QSSL.QSDY" Value="169"/>
    </ItemGroupData>
    <ItemGroupData ItemGroupOID="IG.QSSL" data:ItemGroupDataSeq="29">
      <ItemData ItemOID="IT.QSSL.STUDYID" Value="CDISCPILOT01"/>
      <ItemData ItemOID="IT.QSSL.DOMAIN" Value="QS"/>
      <ItemData ItemOID="IT.QSSL.USUBJID" Value="CDISC003"/>
      <ItemData ItemOID="IT.QSSL.QSSEQ" Value="47"/>
      <ItemData ItemOID="IT.QSSL.QSTESTCD" Value="SWLS0104"/>
      <ItemData ItemOID="IT.QSSL.QSTEST" Value="SWLS01-Have Gotten Important Things"/>
      <ItemData ItemOID="IT.QSSL.QSCAT" Value="SWLS"/>
      <ItemData ItemOID="IT.QSSL.QSORRES" Value="Slightly agree"/>
      <ItemData ItemOID="IT.QSSL.QSSTRESC" Value="5"/>
      <ItemData ItemOID="IT.QSSL.QSSTRESN" Value="5"/>
      <ItemData ItemOID="IT.QSSL.VISITNUM" Value="201"/>
      <ItemData ItemOID="IT.QSSL.VISIT" Value="EARLY DISCONTINUATION RETRIEVAL"/>
      <ItemData ItemOID="IT.QSSL.EPOCH" Value="TREATMENT"/>
      <ItemData ItemOID="IT.QSSL.QSDTC" Value="2014-02-13"/>
      <ItemData ItemOID="IT.QSSL.QSDY" Value="169"/>
    </ItemGroupData>
    <ItemGroupData ItemGroupOID="IG.QSSL" data:ItemGroupDataSeq="30">
      <ItemData ItemOID="IT.QSSL.STUDYID" Value="CDISCPILOT01"/>
      <ItemData ItemOID="IT.QSSL.DOMAIN" Value="QS"/>
      <ItemData ItemOID="IT.QSSL.USUBJID" Value="CDISC003"/>
      <ItemData ItemOID="IT.QSSL.QSSEQ" Value="48"/>
      <ItemData ItemOID="IT.QSSL.QSTESTCD" Value="SWLS0105"/>
      <ItemData ItemOID="IT.QSSL.QSTEST" Value="SWLS01-Live Life Over Change Nothing"/>
      <ItemData ItemOID="IT.QSSL.QSCAT" Value="SWLS"/>
      <ItemData ItemOID="IT.QSSL.QSORRES" Value="Agree"/>
      <ItemData ItemOID="IT.QSSL.QSSTRESC" Value="6"/>
      <ItemData ItemOID="IT.QSSL.QSSTRESN" Value="6"/>
      <ItemData ItemOID="IT.QSSL.VISITNUM" Value="201"/>
      <ItemData ItemOID="IT.QSSL.VISIT" Value="EARLY DISCONTINUATION RETRIEVAL"/>
      <ItemData ItemOID="IT.QSSL.EPOCH" Value="TREATMENT"/>
      <ItemData ItemOID="IT.QSSL.QSDTC" Value="2014-02-13"/>
      <ItemData ItemOID="IT.QSSL.QSDY" Value="169"/>
    </ItemGroupData>
    <ItemGroupData ItemGroupOID="IG.QSSL" data:ItemGroupDataSeq="31">
      <ItemData ItemOID="IT.QSSL.STUDYID" Value="CDISCPILOT01"/>
      <ItemData ItemOID="IT.QSSL.DOMAIN" Value="QS"/>
      <ItemData ItemOID="IT.QSSL.USUBJID" Value="CDISC004"/>
      <ItemData ItemOID="IT.QSSL.QSSEQ" Value="12"/>
      <ItemData ItemOID="IT.QSSL.QSTESTCD" Value="SWLS0101"/>
      <ItemData ItemOID="IT.QSSL.QSTEST" Value="SWLS01-My Life is Close to Ideal"/>
      <ItemData ItemOID="IT.QSSL.QSCAT" Value="SWLS"/>
      <ItemData ItemOID="IT.QSSL.QSORRES" Value="Disagree"/>
      <ItemData ItemOID="IT.QSSL.QSSTRESC" Value="2"/>
      <ItemData ItemOID="IT.QSSL.QSSTRESN" Value="2"/>
      <ItemData ItemOID="IT.QSSL.QSLOBXFL" Value="Y"/>
      <ItemData ItemOID="IT.QSSL.VISITNUM" Value="3"/>
      <ItemData ItemOID="IT.QSSL.VISIT" Value="BASELINE"/>
      <ItemData ItemOID="IT.QSSL.EPOCH" Value="SCREENING"/>
      <ItemData ItemOID="IT.QSSL.QSDTC" Value="2013-10-08"/>
      <ItemData ItemOID="IT.QSSL.QSDY" Value="1"/>
    </ItemGroupData>
    <ItemGroupData ItemGroupOID="IG.QSSL" data:ItemGroupDataSeq="32">
      <ItemData ItemOID="IT.QSSL.STUDYID" Value="CDISCPILOT01"/>
      <ItemData ItemOID="IT.QSSL.DOMAIN" Value="QS"/>
      <ItemData ItemOID="IT.QSSL.USUBJID" Value="CDISC004"/>
      <ItemData ItemOID="IT.QSSL.QSSEQ" Value="13"/>
      <ItemData ItemOID="IT.QSSL.QSTESTCD" Value="SWLS0102"/>
      <ItemData ItemOID="IT.QSSL.QSTEST" Value="SWLS01-My Life Conditions are Excellent"/>
      <ItemData ItemOID="IT.QSSL.QSCAT" Value="SWLS"/>
      <ItemData ItemOID="IT.QSSL.QSORRES" Value="Slightly disagree"/>
      <ItemData ItemOID="IT.QSSL.QSSTRESC" Value="3"/>
      <ItemData ItemOID="IT.QSSL.QSSTRESN" Value="3"/>
      <ItemData ItemOID="IT.QSSL.QSLOBXFL" Value="Y"/>
      <ItemData ItemOID="IT.QSSL.VISITNUM" Value="3"/>
      <ItemData ItemOID="IT.QSSL.VISIT" Value="BASELINE"/>
      <ItemData ItemOID="IT.QSSL.EPOCH" Value="SCREENING"/>
      <ItemData ItemOID="IT.QSSL.QSDTC" Value="2013-10-08"/>
      <ItemData ItemOID="IT.QSSL.QSDY" Value="1"/>
    </ItemGroupData>
    <ItemGroupData ItemGroupOID="IG.QSSL" data:ItemGroupDataSeq="33">
      <ItemData ItemOID="IT.QSSL.STUDYID" Value="CDISCPILOT01"/>
      <ItemData ItemOID="IT.QSSL.DOMAIN" Value="QS"/>
      <ItemData ItemOID="IT.QSSL.USUBJID" Value="CDISC004"/>
      <ItemData ItemOID="IT.QSSL.QSSEQ" Value="14"/>
      <ItemData ItemOID="IT.QSSL.QSTESTCD" Value="SWLS0103"/>
      <ItemData ItemOID="IT.QSSL.QSTEST" Value="SWLS01-I Am Satisfied with My Life"/>
      <ItemData ItemOID="IT.QSSL.QSCAT" Value="SWLS"/>
      <ItemData ItemOID="IT.QSSL.QSORRES" Value="Neither agree nor disagree"/>
      <ItemData ItemOID="IT.QSSL.QSSTRESC" Value="4"/>
      <ItemData ItemOID="IT.QSSL.QSSTRESN" Value="4"/>
      <ItemData ItemOID="IT.QSSL.QSLOBXFL" Value="Y"/>
      <ItemData ItemOID="IT.QSSL.VISITNUM" Value="3"/>
      <ItemData ItemOID="IT.QSSL.VISIT" Value="BASELINE"/>
      <ItemData ItemOID="IT.QSSL.EPOCH" Value="SCREENING"/>
      <ItemData ItemOID="IT.QSSL.QSDTC" Value="2013-10-08"/>
      <ItemData ItemOID="IT.QSSL.QSDY" Value="1"/>
    </ItemGroupData>
    <ItemGroupData ItemGroupOID="IG.QSSL" data:ItemGroupDataSeq="34">
      <ItemData ItemOID="IT.QSSL.STUDYID" Value="CDISCPILOT01"/>
      <ItemData ItemOID="IT.QSSL.DOMAIN" Value="QS"/>
      <ItemData ItemOID="IT.QSSL.USUBJID" Value="CDISC004"/>
      <ItemData ItemOID="IT.QSSL.QSSEQ" Value="15"/>
      <ItemData ItemOID="IT.QSSL.QSTESTCD" Value="SWLS0104"/>
      <ItemData ItemOID="IT.QSSL.QSTEST" Value="SWLS01-Have Gotten Important Things"/>
      <ItemData ItemOID="IT.QSSL.QSCAT" Value="SWLS"/>
      <ItemData ItemOID="IT.QSSL.QSORRES" Value="Slightly disagree"/>
      <ItemData ItemOID="IT.QSSL.QSSTRESC" Value="3"/>
      <ItemData ItemOID="IT.QSSL.QSSTRESN" Value="3"/>
      <ItemData ItemOID="IT.QSSL.QSLOBXFL" Value="Y"/>
      <ItemData ItemOID="IT.QSSL.VISITNUM" Value="3"/>
      <ItemData ItemOID="IT.QSSL.VISIT" Value="BASELINE"/>
      <ItemData ItemOID="IT.QSSL.EPOCH" Value="SCREENING"/>
      <ItemData ItemOID="IT.QSSL.QSDTC" Value="2013-10-08"/>
      <ItemData ItemOID="IT.QSSL.QSDY" Value="1"/>
    </ItemGroupData>
    <ItemGroupData ItemGroupOID="IG.QSSL" data:ItemGroupDataSeq="35">
      <ItemData ItemOID="IT.QSSL.STUDYID" Value="CDISCPILOT01"/>
      <ItemData ItemOID="IT.QSSL.DOMAIN" Value="QS"/>
      <ItemData ItemOID="IT.QSSL.USUBJID" Value="CDISC004"/>
      <ItemData ItemOID="IT.QSSL.QSSEQ" Value="16"/>
      <ItemData ItemOID="IT.QSSL.QSTESTCD" Value="SWLS0105"/>
      <ItemData ItemOID="IT.QSSL.QSTEST" Value="SWLS01-Live Life Over Change Nothing"/>
      <ItemData ItemOID="IT.QSSL.QSCAT" Value="SWLS"/>
      <ItemData ItemOID="IT.QSSL.QSORRES" Value="Slightly disagree"/>
      <ItemData ItemOID="IT.QSSL.QSSTRESC" Value="3"/>
      <ItemData ItemOID="IT.QSSL.QSSTRESN" Value="3"/>
      <ItemData ItemOID="IT.QSSL.QSLOBXFL" Value="Y"/>
      <ItemData ItemOID="IT.QSSL.VISITNUM" Value="3"/>
      <ItemData ItemOID="IT.QSSL.VISIT" Value="BASELINE"/>
      <ItemData ItemOID="IT.QSSL.EPOCH" Value="SCREENING"/>
      <ItemData ItemOID="IT.QSSL.QSDTC" Value="2013-10-08"/>
      <ItemData ItemOID="IT.QSSL.QSDY" Value="1"/>
    </ItemGroupData>
    <ItemGroupData ItemGroupOID="IG.QSSL" data:ItemGroupDataSeq="36">
      <ItemData ItemOID="IT.QSSL.STUDYID" Value="CDISCPILOT01"/>
      <ItemData ItemOID="IT.QSSL.DOMAIN" Value="QS"/>
      <ItemData ItemOID="IT.QSSL.USUBJID" Value="CDISC007"/>
      <ItemData ItemOID="IT.QSSL.QSSEQ" Value="12"/>
      <ItemData ItemOID="IT.QSSL.QSTESTCD" Value="SWLS0101"/>
      <ItemData ItemOID="IT.QSSL.QSTEST" Value="SWLS01-My Life is Close to Ideal"/>
      <ItemData ItemOID="IT.QSSL.QSCAT" Value="SWLS"/>
      <ItemData ItemOID="IT.QSSL.QSORRES" Value="Neither agree nor disagree"/>
      <ItemData ItemOID="IT.QSSL.QSSTRESC" Value="4"/>
      <ItemData ItemOID="IT.QSSL.QSSTRESN" Value="4"/>
      <ItemData ItemOID="IT.QSSL.QSLOBXFL" Value="Y"/>
      <ItemData ItemOID="IT.QSSL.VISITNUM" Value="3"/>
      <ItemData ItemOID="IT.QSSL.VISIT" Value="BASELINE"/>
      <ItemData ItemOID="IT.QSSL.EPOCH" Value="SCREENING"/>
      <ItemData ItemOID="IT.QSSL.QSDTC" Value="2013-01-05"/>
      <ItemData ItemOID="IT.QSSL.QSDY" Value="1"/>
    </ItemGroupData>
    <ItemGroupData ItemGroupOID="IG.QSSL" data:ItemGroupDataSeq="37">
      <ItemData ItemOID="IT.QSSL.STUDYID" Value="CDISCPILOT01"/>
      <ItemData ItemOID="IT.QSSL.DOMAIN" Value="QS"/>
      <ItemData ItemOID="IT.QSSL.USUBJID" Value="CDISC007"/>
      <ItemData ItemOID="IT.QSSL.QSSEQ" Value="13"/>
      <ItemData ItemOID="IT.QSSL.QSTESTCD" Value="SWLS0102"/>
      <ItemData ItemOID="IT.QSSL.QSTEST" Value="SWLS01-My Life Conditions are Excellent"/>
      <ItemData ItemOID="IT.QSSL.QSCAT" Value="SWLS"/>
      <ItemData ItemOID="IT.QSSL.QSORRES" Value="Slightly agree"/>
      <ItemData ItemOID="IT.QSSL.QSSTRESC" Value="5"/>
      <ItemData ItemOID="IT.QSSL.QSSTRESN" Value="5"/>
      <ItemData ItemOID="IT.QSSL.QSLOBXFL" Value="Y"/>
      <ItemData ItemOID="IT.QSSL.VISITNUM" Value="3"/>
      <ItemData ItemOID="IT.QSSL.VISIT" Value="BASELINE"/>
      <ItemData ItemOID="IT.QSSL.EPOCH" Value="SCREENING"/>
      <ItemData ItemOID="IT.QSSL.QSDTC" Value="2013-01-05"/>
      <ItemData ItemOID="IT.QSSL.QSDY" Value="1"/>
    </ItemGroupData>
    <ItemGroupData ItemGroupOID="IG.QSSL" data:ItemGroupDataSeq="38">
      <ItemData ItemOID="IT.QSSL.STUDYID" Value="CDISCPILOT01"/>
      <ItemData ItemOID="IT.QSSL.DOMAIN" Value="QS"/>
      <ItemData ItemOID="IT.QSSL.USUBJID" Value="CDISC007"/>
      <ItemData ItemOID="IT.QSSL.QSSEQ" Value="14"/>
      <ItemData ItemOID="IT.QSSL.QSTESTCD" Value="SWLS0103"/>
      <ItemData ItemOID="IT.QSSL.QSTEST" Value="SWLS01-I Am Satisfied with My Life"/>
      <ItemData ItemOID="IT.QSSL.QSCAT" Value="SWLS"/>
      <ItemData ItemOID="IT.QSSL.QSORRES" Value="Agree"/>
      <ItemData ItemOID="IT.QSSL.QSSTRESC" Value="6"/>
      <ItemData ItemOID="IT.QSSL.QSSTRESN" Value="6"/>
      <ItemData ItemOID="IT.QSSL.QSLOBXFL" Value="Y"/>
      <ItemData ItemOID="IT.QSSL.VISITNUM" Value="3"/>
      <ItemData ItemOID="IT.QSSL.VISIT" Value="BASELINE"/>
      <ItemData ItemOID="IT.QSSL.EPOCH" Value="SCREENING"/>
      <ItemData ItemOID="IT.QSSL.QSDTC" Value="2013-01-05"/>
      <ItemData ItemOID="IT.QSSL.QSDY" Value="1"/>
    </ItemGroupData>
    <ItemGroupData ItemGroupOID="IG.QSSL" data:ItemGroupDataSeq="39">
      <ItemData ItemOID="IT.QSSL.STUDYID" Value="CDISCPILOT01"/>
      <ItemData ItemOID="IT.QSSL.DOMAIN" Value="QS"/>
      <ItemData ItemOID="IT.QSSL.USUBJID" Value="CDISC007"/>
      <ItemData ItemOID="IT.QSSL.QSSEQ" Value="15"/>
      <ItemData ItemOID="IT.QSSL.QSTESTCD" Value="SWLS0104"/>
      <ItemData ItemOID="IT.QSSL.QSTEST" Value="SWLS01-Have Gotten Important Things"/>
      <ItemData ItemOID="IT.QSSL.QSCAT" Value="SWLS"/>
      <ItemData ItemOID="IT.QSSL.QSORRES" Value="Agree"/>
      <ItemData ItemOID="IT.QSSL.QSSTRESC" Value="6"/>
      <ItemData ItemOID="IT.QSSL.QSSTRESN" Value="6"/>
      <ItemData ItemOID="IT.QSSL.QSLOBXFL" Value="Y"/>
      <ItemData ItemOID="IT.QSSL.VISITNUM" Value="3"/>
      <ItemData ItemOID="IT.QSSL.VISIT" Value="BASELINE"/>
      <ItemData ItemOID="IT.QSSL.EPOCH" Value="SCREENING"/>
      <ItemData ItemOID="IT.QSSL.QSDTC" Value="2013-01-05"/>
      <ItemData ItemOID="IT.QSSL.QSDY" Value="1"/>
    </ItemGroupData>
    <ItemGroupData ItemGroupOID="IG.QSSL" data:ItemGroupDataSeq="40">
      <ItemData ItemOID="IT.QSSL.STUDYID" Value="CDISCPILOT01"/>
      <ItemData ItemOID="IT.QSSL.DOMAIN" Value="QS"/>
      <ItemData ItemOID="IT.QSSL.USUBJID" Value="CDISC007"/>
      <ItemData ItemOID="IT.QSSL.QSSEQ" Value="16"/>
      <ItemData ItemOID="IT.QSSL.QSTESTCD" Value="SWLS0105"/>
      <ItemData ItemOID="IT.QSSL.QSTEST" Value="SWLS01-Live Life Over Change Nothing"/>
      <ItemData ItemOID="IT.QSSL.QSCAT" Value="SWLS"/>
      <ItemData ItemOID="IT.QSSL.QSORRES" Value="Slightly agree"/>
      <ItemData ItemOID="IT.QSSL.QSSTRESC" Value="5"/>
      <ItemData ItemOID="IT.QSSL.QSSTRESN" Value="5"/>
      <ItemData ItemOID="IT.QSSL.QSLOBXFL" Value="Y"/>
      <ItemData ItemOID="IT.QSSL.VISITNUM" Value="3"/>
      <ItemData ItemOID="IT.QSSL.VISIT" Value="BASELINE"/>
      <ItemData ItemOID="IT.QSSL.EPOCH" Value="SCREENING"/>
      <ItemData ItemOID="IT.QSSL.QSDTC" Value="2013-01-05"/>
      <ItemData ItemOID="IT.QSSL.QSDY" Value="1"/>
    </ItemGroupData>
    <ItemGroupData ItemGroupOID="IG.QSSL" data:ItemGroupDataSeq="41">
      <ItemData ItemOID="IT.QSSL.STUDYID" Value="CDISCPILOT01"/>
      <ItemData ItemOID="IT.QSSL.DOMAIN" Value="QS"/>
      <ItemData ItemOID="IT.QSSL.USUBJID" Value="CDISC008"/>
      <ItemData ItemOID="IT.QSSL.QSSEQ" Value="12"/>
      <ItemData ItemOID="IT.QSSL.QSTESTCD" Value="SWLS0101"/>
      <ItemData ItemOID="IT.QSSL.QSTEST" Value="SWLS01-My Life is Close to Ideal"/>
      <ItemData ItemOID="IT.QSSL.QSCAT" Value="SWLS"/>
      <ItemData ItemOID="IT.QSSL.QSORRES" Value="Slightly agree"/>
      <ItemData ItemOID="IT.QSSL.QSSTRESC" Value="5"/>
      <ItemData ItemOID="IT.QSSL.QSSTRESN" Value="5"/>
      <ItemData ItemOID="IT.QSSL.QSLOBXFL" Value="Y"/>
      <ItemData ItemOID="IT.QSSL.VISITNUM" Value="3"/>
      <ItemData ItemOID="IT.QSSL.VISIT" Value="BASELINE"/>
      <ItemData ItemOID="IT.QSSL.EPOCH" Value="SCREENING"/>
      <ItemData ItemOID="IT.QSSL.QSDTC" Value="2014-05-11"/>
      <ItemData ItemOID="IT.QSSL.QSDY" Value="1"/>
    </ItemGroupData>
    <ItemGroupData ItemGroupOID="IG.QSSL" data:ItemGroupDataSeq="42">
      <ItemData ItemOID="IT.QSSL.STUDYID" Value="CDISCPILOT01"/>
      <ItemData ItemOID="IT.QSSL.DOMAIN" Value="QS"/>
      <ItemData ItemOID="IT.QSSL.USUBJID" Value="CDISC008"/>
      <ItemData ItemOID="IT.QSSL.QSSEQ" Value="13"/>
      <ItemData ItemOID="IT.QSSL.QSTESTCD" Value="SWLS0102"/>
      <ItemData ItemOID="IT.QSSL.QSTEST" Value="SWLS01-My Life Conditions are Excellent"/>
      <ItemData ItemOID="IT.QSSL.QSCAT" Value="SWLS"/>
      <ItemData ItemOID="IT.QSSL.QSORRES" Value="Agree"/>
      <ItemData ItemOID="IT.QSSL.QSSTRESC" Value="6"/>
      <ItemData ItemOID="IT.QSSL.QSSTRESN" Value="6"/>
      <ItemData ItemOID="IT.QSSL.QSLOBXFL" Value="Y"/>
      <ItemData ItemOID="IT.QSSL.VISITNUM" Value="3"/>
      <ItemData ItemOID="IT.QSSL.VISIT" Value="BASELINE"/>
      <ItemData ItemOID="IT.QSSL.EPOCH" Value="SCREENING"/>
      <ItemData ItemOID="IT.QSSL.QSDTC" Value="2014-05-11"/>
      <ItemData ItemOID="IT.QSSL.QSDY" Value="1"/>
    </ItemGroupData>
    <ItemGroupData ItemGroupOID="IG.QSSL" data:ItemGroupDataSeq="43">
      <ItemData ItemOID="IT.QSSL.STUDYID" Value="CDISCPILOT01"/>
      <ItemData ItemOID="IT.QSSL.DOMAIN" Value="QS"/>
      <ItemData ItemOID="IT.QSSL.USUBJID" Value="CDISC008"/>
      <ItemData ItemOID="IT.QSSL.QSSEQ" Value="14"/>
      <ItemData ItemOID="IT.QSSL.QSTESTCD" Value="SWLS0103"/>
      <ItemData ItemOID="IT.QSSL.QSTEST" Value="SWLS01-I Am Satisfied with My Life"/>
      <ItemData ItemOID="IT.QSSL.QSCAT" Value="SWLS"/>
      <ItemData ItemOID="IT.QSSL.QSORRES" Value="Slightly agree"/>
      <ItemData ItemOID="IT.QSSL.QSSTRESC" Value="5"/>
      <ItemData ItemOID="IT.QSSL.QSSTRESN" Value="5"/>
      <ItemData ItemOID="IT.QSSL.QSLOBXFL" Value="Y"/>
      <ItemData ItemOID="IT.QSSL.VISITNUM" Value="3"/>
      <ItemData ItemOID="IT.QSSL.VISIT" Value="BASELINE"/>
      <ItemData ItemOID="IT.QSSL.EPOCH" Value="SCREENING"/>
      <ItemData ItemOID="IT.QSSL.QSDTC" Value="2014-05-11"/>
      <ItemData ItemOID="IT.QSSL.QSDY" Value="1"/>
    </ItemGroupData>
    <ItemGroupData ItemGroupOID="IG.QSSL" data:ItemGroupDataSeq="44">
      <ItemData ItemOID="IT.QSSL.STUDYID" Value="CDISCPILOT01"/>
      <ItemData ItemOID="IT.QSSL.DOMAIN" Value="QS"/>
      <ItemData ItemOID="IT.QSSL.USUBJID" Value="CDISC008"/>
      <ItemData ItemOID="IT.QSSL.QSSEQ" Value="15"/>
      <ItemData ItemOID="IT.QSSL.QSTESTCD" Value="SWLS0104"/>
      <ItemData ItemOID="IT.QSSL.QSTEST" Value="SWLS01-Have Gotten Important Things"/>
      <ItemData ItemOID="IT.QSSL.QSCAT" Value="SWLS"/>
      <ItemData ItemOID="IT.QSSL.QSORRES" Value="Slightly agree"/>
      <ItemData ItemOID="IT.QSSL.QSSTRESC" Value="5"/>
      <ItemData ItemOID="IT.QSSL.QSSTRESN" Value="5"/>
      <ItemData ItemOID="IT.QSSL.QSLOBXFL" Value="Y"/>
      <ItemData ItemOID="IT.QSSL.VISITNUM" Value="3"/>
      <ItemData ItemOID="IT.QSSL.VISIT" Value="BASELINE"/>
      <ItemData ItemOID="IT.QSSL.EPOCH" Value="SCREENING"/>
      <ItemData ItemOID="IT.QSSL.QSDTC" Value="2014-05-11"/>
      <ItemData ItemOID="IT.QSSL.QSDY" Value="1"/>
    </ItemGroupData>
    <ItemGroupData ItemGroupOID="IG.QSSL" data:ItemGroupDataSeq="45">
      <ItemData ItemOID="IT.QSSL.STUDYID" Value="CDISCPILOT01"/>
      <ItemData ItemOID="IT.QSSL.DOMAIN" Value="QS"/>
      <ItemData ItemOID="IT.QSSL.USUBJID" Value="CDISC008"/>
      <ItemData ItemOID="IT.QSSL.QSSEQ" Value="16"/>
      <ItemData ItemOID="IT.QSSL.QSTESTCD" Value="SWLS0105"/>
      <ItemData ItemOID="IT.QSSL.QSTEST" Value="SWLS01-Live Life Over Change Nothing"/>
      <ItemData ItemOID="IT.QSSL.QSCAT" Value="SWLS"/>
      <ItemData ItemOID="IT.QSSL.QSORRES" Value="Slightly agree"/>
      <ItemData ItemOID="IT.QSSL.QSSTRESC" Value="5"/>
      <ItemData ItemOID="IT.QSSL.QSSTRESN" Value="5"/>
      <ItemData ItemOID="IT.QSSL.QSLOBXFL" Value="Y"/>
      <ItemData ItemOID="IT.QSSL.VISITNUM" Value="3"/>
      <ItemData ItemOID="IT.QSSL.VISIT" Value="BASELINE"/>
      <ItemData ItemOID="IT.QSSL.EPOCH" Value="SCREENING"/>
      <ItemData ItemOID="IT.QSSL.QSDTC" Value="2014-05-11"/>
      <ItemData ItemOID="IT.QSSL.QSDY" Value="1"/>
    </ItemGroupData>
    <ItemGroupData ItemGroupOID="IG.QSSL" data:ItemGroupDataSeq="46">
      <ItemData ItemOID="IT.QSSL.STUDYID" Value="CDISCPILOT01"/>
      <ItemData ItemOID="IT.QSSL.DOMAIN" Value="QS"/>
      <ItemData ItemOID="IT.QSSL.USUBJID" Value="CDISC008"/>
      <ItemData ItemOID="IT.QSSL.QSSEQ" Value="28"/>
      <ItemData ItemOID="IT.QSSL.QSTESTCD" Value="SWLS0101"/>
      <ItemData ItemOID="IT.QSSL.QSTEST" Value="SWLS01-My Life is Close to Ideal"/>
      <ItemData ItemOID="IT.QSSL.QSCAT" Value="SWLS"/>
      <ItemData ItemOID="IT.QSSL.QSORRES" Value="Slightly agree"/>
      <ItemData ItemOID="IT.QSSL.QSSTRESC" Value="5"/>
      <ItemData ItemOID="IT.QSSL.QSSTRESN" Value="5"/>
      <ItemData ItemOID="IT.QSSL.VISITNUM" Value="10"/>
      <ItemData ItemOID="IT.QSSL.VISIT" Value="WEEK 16"/>
      <ItemData ItemOID="IT.QSSL.EPOCH" Value="TREATMENT"/>
      <ItemData ItemOID="IT.QSSL.QSDTC" Value="2014-09-03"/>
      <ItemData ItemOID="IT.QSSL.QSDY" Value="116"/>
    </ItemGroupData>
    <ItemGroupData ItemGroupOID="IG.QSSL" data:ItemGroupDataSeq="47">
      <ItemData ItemOID="IT.QSSL.STUDYID" Value="CDISCPILOT01"/>
      <ItemData ItemOID="IT.QSSL.DOMAIN" Value="QS"/>
      <ItemData ItemOID="IT.QSSL.USUBJID" Value="CDISC008"/>
      <ItemData ItemOID="IT.QSSL.QSSEQ" Value="29"/>
      <ItemData ItemOID="IT.QSSL.QSTESTCD" Value="SWLS0102"/>
      <ItemData ItemOID="IT.QSSL.QSTEST" Value="SWLS01-My Life Conditions are Excellent"/>
      <ItemData ItemOID="IT.QSSL.QSCAT" Value="SWLS"/>
      <ItemData ItemOID="IT.QSSL.QSORRES" Value="Agree"/>
      <ItemData ItemOID="IT.QSSL.QSSTRESC" Value="6"/>
      <ItemData ItemOID="IT.QSSL.QSSTRESN" Value="6"/>
      <ItemData ItemOID="IT.QSSL.VISITNUM" Value="10"/>
      <ItemData ItemOID="IT.QSSL.VISIT" Value="WEEK 16"/>
      <ItemData ItemOID="IT.QSSL.EPOCH" Value="TREATMENT"/>
      <ItemData ItemOID="IT.QSSL.QSDTC" Value="2014-09-03"/>
      <ItemData ItemOID="IT.QSSL.QSDY" Value="116"/>
    </ItemGroupData>
    <ItemGroupData ItemGroupOID="IG.QSSL" data:ItemGroupDataSeq="48">
      <ItemData ItemOID="IT.QSSL.STUDYID" Value="CDISCPILOT01"/>
      <ItemData ItemOID="IT.QSSL.DOMAIN" Value="QS"/>
      <ItemData ItemOID="IT.QSSL.USUBJID" Value="CDISC008"/>
      <ItemData ItemOID="IT.QSSL.QSSEQ" Value="30"/>
      <ItemData ItemOID="IT.QSSL.QSTESTCD" Value="SWLS0103"/>
      <ItemData ItemOID="IT.QSSL.QSTEST" Value="SWLS01-I Am Satisfied with My Life"/>
      <ItemData ItemOID="IT.QSSL.QSCAT" Value="SWLS"/>
      <ItemData ItemOID="IT.QSSL.QSORRES" Value="Slightly agree"/>
      <ItemData ItemOID="IT.QSSL.QSSTRESC" Value="5"/>
      <ItemData ItemOID="IT.QSSL.QSSTRESN" Value="5"/>
      <ItemData ItemOID="IT.QSSL.VISITNUM" Value="10"/>
      <ItemData ItemOID="IT.QSSL.VISIT" Value="WEEK 16"/>
      <ItemData ItemOID="IT.QSSL.EPOCH" Value="TREATMENT"/>
      <ItemData ItemOID="IT.QSSL.QSDTC" Value="2014-09-03"/>
      <ItemData ItemOID="IT.QSSL.QSDY" Value="116"/>
    </ItemGroupData>
    <ItemGroupData ItemGroupOID="IG.QSSL" data:ItemGroupDataSeq="49">
      <ItemData ItemOID="IT.QSSL.STUDYID" Value="CDISCPILOT01"/>
      <ItemData ItemOID="IT.QSSL.DOMAIN" Value="QS"/>
      <ItemData ItemOID="IT.QSSL.USUBJID" Value="CDISC008"/>
      <ItemData ItemOID="IT.QSSL.QSSEQ" Value="31"/>
      <ItemData ItemOID="IT.QSSL.QSTESTCD" Value="SWLS0104"/>
      <ItemData ItemOID="IT.QSSL.QSTEST" Value="SWLS01-Have Gotten Important Things"/>
      <ItemData ItemOID="IT.QSSL.QSCAT" Value="SWLS"/>
      <ItemData ItemOID="IT.QSSL.QSORRES" Value="Slightly agree"/>
      <ItemData ItemOID="IT.QSSL.QSSTRESC" Value="5"/>
      <ItemData ItemOID="IT.QSSL.QSSTRESN" Value="5"/>
      <ItemData ItemOID="IT.QSSL.VISITNUM" Value="10"/>
      <ItemData ItemOID="IT.QSSL.VISIT" Value="WEEK 16"/>
      <ItemData ItemOID="IT.QSSL.EPOCH" Value="TREATMENT"/>
      <ItemData ItemOID="IT.QSSL.QSDTC" Value="2014-09-03"/>
      <ItemData ItemOID="IT.QSSL.QSDY" Value="116"/>
    </ItemGroupData>
    <ItemGroupData ItemGroupOID="IG.QSSL" data:ItemGroupDataSeq="50">
      <ItemData ItemOID="IT.QSSL.STUDYID" Value="CDISCPILOT01"/>
      <ItemData ItemOID="IT.QSSL.DOMAIN" Value="QS"/>
      <ItemData ItemOID="IT.QSSL.USUBJID" Value="CDISC008"/>
      <ItemData ItemOID="IT.QSSL.QSSEQ" Value="32"/>
      <ItemData ItemOID="IT.QSSL.QSTESTCD" Value="SWLS0105"/>
      <ItemData ItemOID="IT.QSSL.QSTEST" Value="SWLS01-Live Life Over Change Nothing"/>
      <ItemData ItemOID="IT.QSSL.QSCAT" Value="SWLS"/>
      <ItemData ItemOID="IT.QSSL.QSORRES" Value="Slightly agree"/>
      <ItemData ItemOID="IT.QSSL.QSSTRESC" Value="5"/>
      <ItemData ItemOID="IT.QSSL.QSSTRESN" Value="5"/>
      <ItemData ItemOID="IT.QSSL.VISITNUM" Value="10"/>
      <ItemData ItemOID="IT.QSSL.VISIT" Value="WEEK 16"/>
      <ItemData ItemOID="IT.QSSL.EPOCH" Value="TREATMENT"/>
      <ItemData ItemOID="IT.QSSL.QSDTC" Value="2014-09-03"/>
      <ItemData ItemOID="IT.QSSL.QSDY" Value="116"/>
    </ItemGroupData>
    <ItemGroupData ItemGroupOID="IG.QSSL" data:ItemGroupDataSeq="51">
      <ItemData ItemOID="IT.QSSL.STUDYID" Value="CDISCPILOT01"/>
      <ItemData ItemOID="IT.QSSL.DOMAIN" Value="QS"/>
      <ItemData ItemOID="IT.QSSL.USUBJID" Value="CDISC009"/>
      <ItemData ItemOID="IT.QSSL.QSSEQ" Value="12"/>
      <ItemData ItemOID="IT.QSSL.QSTESTCD" Value="SWLS0101"/>
      <ItemData ItemOID="IT.QSSL.QSTEST" Value="SWLS01-My Life is Close to Ideal"/>
      <ItemData ItemOID="IT.QSSL.QSCAT" Value="SWLS"/>
      <ItemData ItemOID="IT.QSSL.QSORRES" Value="Slightly disagree"/>
      <ItemData ItemOID="IT.QSSL.QSSTRESC" Value="3"/>
      <ItemData ItemOID="IT.QSSL.QSSTRESN" Value="3"/>
      <ItemData ItemOID="IT.QSSL.QSLOBXFL" Value="Y"/>
      <ItemData ItemOID="IT.QSSL.VISITNUM" Value="3"/>
      <ItemData ItemOID="IT.QSSL.VISIT" Value="BASELINE"/>
      <ItemData ItemOID="IT.QSSL.EPOCH" Value="SCREENING"/>
      <ItemData ItemOID="IT.QSSL.QSDTC" Value="2012-10-22"/>
      <ItemData ItemOID="IT.QSSL.QSDY" Value="1"/>
    </ItemGroupData>
    <ItemGroupData ItemGroupOID="IG.QSSL" data:ItemGroupDataSeq="52">
      <ItemData ItemOID="IT.QSSL.STUDYID" Value="CDISCPILOT01"/>
      <ItemData ItemOID="IT.QSSL.DOMAIN" Value="QS"/>
      <ItemData ItemOID="IT.QSSL.USUBJID" Value="CDISC009"/>
      <ItemData ItemOID="IT.QSSL.QSSEQ" Value="13"/>
      <ItemData ItemOID="IT.QSSL.QSTESTCD" Value="SWLS0102"/>
      <ItemData ItemOID="IT.QSSL.QSTEST" Value="SWLS01-My Life Conditions are Excellent"/>
      <ItemData ItemOID="IT.QSSL.QSCAT" Value="SWLS"/>
      <ItemData ItemOID="IT.QSSL.QSORRES" Value="Neither agree nor disagree"/>
      <ItemData ItemOID="IT.QSSL.QSSTRESC" Value="4"/>
      <ItemData ItemOID="IT.QSSL.QSSTRESN" Value="4"/>
      <ItemData ItemOID="IT.QSSL.QSLOBXFL" Value="Y"/>
      <ItemData ItemOID="IT.QSSL.VISITNUM" Value="3"/>
      <ItemData ItemOID="IT.QSSL.VISIT" Value="BASELINE"/>
      <ItemData ItemOID="IT.QSSL.EPOCH" Value="SCREENING"/>
      <ItemData ItemOID="IT.QSSL.QSDTC" Value="2012-10-22"/>
      <ItemData ItemOID="IT.QSSL.QSDY" Value="1"/>
    </ItemGroupData>
    <ItemGroupData ItemGroupOID="IG.QSSL" data:ItemGroupDataSeq="53">
      <ItemData ItemOID="IT.QSSL.STUDYID" Value="CDISCPILOT01"/>
      <ItemData ItemOID="IT.QSSL.DOMAIN" Value="QS"/>
      <ItemData ItemOID="IT.QSSL.USUBJID" Value="CDISC009"/>
      <ItemData ItemOID="IT.QSSL.QSSEQ" Value="14"/>
      <ItemData ItemOID="IT.QSSL.QSTESTCD" Value="SWLS0103"/>
      <ItemData ItemOID="IT.QSSL.QSTEST" Value="SWLS01-I Am Satisfied with My Life"/>
      <ItemData ItemOID="IT.QSSL.QSCAT" Value="SWLS"/>
      <ItemData ItemOID="IT.QSSL.QSORRES" Value="Slightly agree"/>
      <ItemData ItemOID="IT.QSSL.QSSTRESC" Value="5"/>
      <ItemData ItemOID="IT.QSSL.QSSTRESN" Value="5"/>
      <ItemData ItemOID="IT.QSSL.QSLOBXFL" Value="Y"/>
      <ItemData ItemOID="IT.QSSL.VISITNUM" Value="3"/>
      <ItemData ItemOID="IT.QSSL.VISIT" Value="BASELINE"/>
      <ItemData ItemOID="IT.QSSL.EPOCH" Value="SCREENING"/>
      <ItemData ItemOID="IT.QSSL.QSDTC" Value="2012-10-22"/>
      <ItemData ItemOID="IT.QSSL.QSDY" Value="1"/>
    </ItemGroupData>
    <ItemGroupData ItemGroupOID="IG.QSSL" data:ItemGroupDataSeq="54">
      <ItemData ItemOID="IT.QSSL.STUDYID" Value="CDISCPILOT01"/>
      <ItemData ItemOID="IT.QSSL.DOMAIN" Value="QS"/>
      <ItemData ItemOID="IT.QSSL.USUBJID" Value="CDISC009"/>
      <ItemData ItemOID="IT.QSSL.QSSEQ" Value="15"/>
      <ItemData ItemOID="IT.QSSL.QSTESTCD" Value="SWLS0104"/>
      <ItemData ItemOID="IT.QSSL.QSTEST" Value="SWLS01-Have Gotten Important Things"/>
      <ItemData ItemOID="IT.QSSL.QSCAT" Value="SWLS"/>
      <ItemData ItemOID="IT.QSSL.QSORRES" Value="Neither agree nor disagree"/>
      <ItemData ItemOID="IT.QSSL.QSSTRESC" Value="4"/>
      <ItemData ItemOID="IT.QSSL.QSSTRESN" Value="4"/>
      <ItemData ItemOID="IT.QSSL.QSLOBXFL" Value="Y"/>
      <ItemData ItemOID="IT.QSSL.VISITNUM" Value="3"/>
      <ItemData ItemOID="IT.QSSL.VISIT" Value="BASELINE"/>
      <ItemData ItemOID="IT.QSSL.EPOCH" Value="SCREENING"/>
      <ItemData ItemOID="IT.QSSL.QSDTC" Value="2012-10-22"/>
      <ItemData ItemOID="IT.QSSL.QSDY" Value="1"/>
    </ItemGroupData>
    <ItemGroupData ItemGroupOID="IG.QSSL" data:ItemGroupDataSeq="55">
      <ItemData ItemOID="IT.QSSL.STUDYID" Value="CDISCPILOT01"/>
      <ItemData ItemOID="IT.QSSL.DOMAIN" Value="QS"/>
      <ItemData ItemOID="IT.QSSL.USUBJID" Value="CDISC009"/>
      <ItemData ItemOID="IT.QSSL.QSSEQ" Value="16"/>
      <ItemData ItemOID="IT.QSSL.QSTESTCD" Value="SWLS0105"/>
      <ItemData ItemOID="IT.QSSL.QSTEST" Value="SWLS01-Live Life Over Change Nothing"/>
      <ItemData ItemOID="IT.QSSL.QSCAT" Value="SWLS"/>
      <ItemData ItemOID="IT.QSSL.QSORRES" Value="Agree"/>
      <ItemData ItemOID="IT.QSSL.QSSTRESC" Value="6"/>
      <ItemData ItemOID="IT.QSSL.QSSTRESN" Value="6"/>
      <ItemData ItemOID="IT.QSSL.QSLOBXFL" Value="Y"/>
      <ItemData ItemOID="IT.QSSL.VISITNUM" Value="3"/>
      <ItemData ItemOID="IT.QSSL.VISIT" Value="BASELINE"/>
      <ItemData ItemOID="IT.QSSL.EPOCH" Value="SCREENING"/>
      <ItemData ItemOID="IT.QSSL.QSDTC" Value="2012-10-22"/>
      <ItemData ItemOID="IT.QSSL.QSDY" Value="1"/>
    </ItemGroupData>
    <ItemGroupData ItemGroupOID="IG.QSSL" data:ItemGroupDataSeq="56">
      <ItemData ItemOID="IT.QSSL.STUDYID" Value="CDISCPILOT01"/>
      <ItemData ItemOID="IT.QSSL.DOMAIN" Value="QS"/>
      <ItemData ItemOID="IT.QSSL.USUBJID" Value="CDISC009"/>
      <ItemData ItemOID="IT.QSSL.QSSEQ" Value="28"/>
      <ItemData ItemOID="IT.QSSL.QSTESTCD" Value="SWLS0101"/>
      <ItemData ItemOID="IT.QSSL.QSTEST" Value="SWLS01-My Life is Close to Ideal"/>
      <ItemData ItemOID="IT.QSSL.QSCAT" Value="SWLS"/>
      <ItemData ItemOID="IT.QSSL.QSORRES" Value="Slightly disagree"/>
      <ItemData ItemOID="IT.QSSL.QSSTRESC" Value="3"/>
      <ItemData ItemOID="IT.QSSL.QSSTRESN" Value="3"/>
      <ItemData ItemOID="IT.QSSL.VISITNUM" Value="10"/>
      <ItemData ItemOID="IT.QSSL.VISIT" Value="WEEK 16"/>
      <ItemData ItemOID="IT.QSSL.EPOCH" Value="TREATMENT"/>
      <ItemData ItemOID="IT.QSSL.QSDTC" Value="2013-02-16"/>
      <ItemData ItemOID="IT.QSSL.QSDY" Value="118"/>
    </ItemGroupData>
    <ItemGroupData ItemGroupOID="IG.QSSL" data:ItemGroupDataSeq="57">
      <ItemData ItemOID="IT.QSSL.STUDYID" Value="CDISCPILOT01"/>
      <ItemData ItemOID="IT.QSSL.DOMAIN" Value="QS"/>
      <ItemData ItemOID="IT.QSSL.USUBJID" Value="CDISC009"/>
      <ItemData ItemOID="IT.QSSL.QSSEQ" Value="29"/>
      <ItemData ItemOID="IT.QSSL.QSTESTCD" Value="SWLS0102"/>
      <ItemData ItemOID="IT.QSSL.QSTEST" Value="SWLS01-My Life Conditions are Excellent"/>
      <ItemData ItemOID="IT.QSSL.QSCAT" Value="SWLS"/>
      <ItemData ItemOID="IT.QSSL.QSORRES" Value="Neither agree nor disagree"/>
      <ItemData ItemOID="IT.QSSL.QSSTRESC" Value="4"/>
      <ItemData ItemOID="IT.QSSL.QSSTRESN" Value="4"/>
      <ItemData ItemOID="IT.QSSL.VISITNUM" Value="10"/>
      <ItemData ItemOID="IT.QSSL.VISIT" Value="WEEK 16"/>
      <ItemData ItemOID="IT.QSSL.EPOCH" Value="TREATMENT"/>
      <ItemData ItemOID="IT.QSSL.QSDTC" Value="2013-02-16"/>
      <ItemData ItemOID="IT.QSSL.QSDY" Value="118"/>
    </ItemGroupData>
    <ItemGroupData ItemGroupOID="IG.QSSL" data:ItemGroupDataSeq="58">
      <ItemData ItemOID="IT.QSSL.STUDYID" Value="CDISCPILOT01"/>
      <ItemData ItemOID="IT.QSSL.DOMAIN" Value="QS"/>
      <ItemData ItemOID="IT.QSSL.USUBJID" Value="CDISC009"/>
      <ItemData ItemOID="IT.QSSL.QSSEQ" Value="30"/>
      <ItemData ItemOID="IT.QSSL.QSTESTCD" Value="SWLS0103"/>
      <ItemData ItemOID="IT.QSSL.QSTEST" Value="SWLS01-I Am Satisfied with My Life"/>
      <ItemData ItemOID="IT.QSSL.QSCAT" Value="SWLS"/>
      <ItemData ItemOID="IT.QSSL.QSORRES" Value="Slightly agree"/>
      <ItemData ItemOID="IT.QSSL.QSSTRESC" Value="5"/>
      <ItemData ItemOID="IT.QSSL.QSSTRESN" Value="5"/>
      <ItemData ItemOID="IT.QSSL.VISITNUM" Value="10"/>
      <ItemData ItemOID="IT.QSSL.VISIT" Value="WEEK 16"/>
      <ItemData ItemOID="IT.QSSL.EPOCH" Value="TREATMENT"/>
      <ItemData ItemOID="IT.QSSL.QSDTC" Value="2013-02-16"/>
      <ItemData ItemOID="IT.QSSL.QSDY" Value="118"/>
    </ItemGroupData>
    <ItemGroupData ItemGroupOID="IG.QSSL" data:ItemGroupDataSeq="59">
      <ItemData ItemOID="IT.QSSL.STUDYID" Value="CDISCPILOT01"/>
      <ItemData ItemOID="IT.QSSL.DOMAIN" Value="QS"/>
      <ItemData ItemOID="IT.QSSL.USUBJID" Value="CDISC009"/>
      <ItemData ItemOID="IT.QSSL.QSSEQ" Value="31"/>
      <ItemData ItemOID="IT.QSSL.QSTESTCD" Value="SWLS0104"/>
      <ItemData ItemOID="IT.QSSL.QSTEST" Value="SWLS01-Have Gotten Important Things"/>
      <ItemData ItemOID="IT.QSSL.QSCAT" Value="SWLS"/>
      <ItemData ItemOID="IT.QSSL.QSORRES" Value="Slightly agree"/>
      <ItemData ItemOID="IT.QSSL.QSSTRESC" Value="5"/>
      <ItemData ItemOID="IT.QSSL.QSSTRESN" Value="5"/>
      <ItemData ItemOID="IT.QSSL.VISITNUM" Value="10"/>
      <ItemData ItemOID="IT.QSSL.VISIT" Value="WEEK 16"/>
      <ItemData ItemOID="IT.QSSL.EPOCH" Value="TREATMENT"/>
      <ItemData ItemOID="IT.QSSL.QSDTC" Value="2013-02-16"/>
      <ItemData ItemOID="IT.QSSL.QSDY" Value="118"/>
    </ItemGroupData>
    <ItemGroupData ItemGroupOID="IG.QSSL" data:ItemGroupDataSeq="60">
      <ItemData ItemOID="IT.QSSL.STUDYID" Value="CDISCPILOT01"/>
      <ItemData ItemOID="IT.QSSL.DOMAIN" Value="QS"/>
      <ItemData ItemOID="IT.QSSL.USUBJID" Value="CDISC009"/>
      <ItemData ItemOID="IT.QSSL.QSSEQ" Value="32"/>
      <ItemData ItemOID="IT.QSSL.QSTESTCD" Value="SWLS0105"/>
      <ItemData ItemOID="IT.QSSL.QSTEST" Value="SWLS01-Live Life Over Change Nothing"/>
      <ItemData ItemOID="IT.QSSL.QSCAT" Value="SWLS"/>
      <ItemData ItemOID="IT.QSSL.QSORRES" Value="Agree"/>
      <ItemData ItemOID="IT.QSSL.QSSTRESC" Value="6"/>
      <ItemData ItemOID="IT.QSSL.QSSTRESN" Value="6"/>
      <ItemData ItemOID="IT.QSSL.VISITNUM" Value="10"/>
      <ItemData ItemOID="IT.QSSL.VISIT" Value="WEEK 16"/>
      <ItemData ItemOID="IT.QSSL.EPOCH" Value="TREATMENT"/>
      <ItemData ItemOID="IT.QSSL.QSDTC" Value="2013-02-16"/>
      <ItemData ItemOID="IT.QSSL.QSDY" Value="118"/>
    </ItemGroupData>
    <ItemGroupData ItemGroupOID="IG.QSSL" data:ItemGroupDataSeq="61">
      <ItemData ItemOID="IT.QSSL.STUDYID" Value="CDISCPILOT01"/>
      <ItemData ItemOID="IT.QSSL.DOMAIN" Value="QS"/>
      <ItemData ItemOID="IT.QSSL.USUBJID" Value="CDISC009"/>
      <ItemData ItemOID="IT.QSSL.QSSEQ" Value="44"/>
      <ItemData ItemOID="IT.QSSL.QSTESTCD" Value="SWLS0101"/>
      <ItemData ItemOID="IT.QSSL.QSTEST" Value="SWLS01-My Life is Close to Ideal"/>
      <ItemData ItemOID="IT.QSSL.QSCAT" Value="SWLS"/>
      <ItemData ItemOID="IT.QSSL.QSORRES" Value="Slightly disagree"/>
      <ItemData ItemOID="IT.QSSL.QSSTRESC" Value="3"/>
      <ItemData ItemOID="IT.QSSL.QSSTRESN" Value="3"/>
      <ItemData ItemOID="IT.QSSL.VISITNUM" Value="12"/>
      <ItemData ItemOID="IT.QSSL.VISIT" Value="WEEK 24"/>
      <ItemData ItemOID="IT.QSSL.EPOCH" Value="TREATMENT"/>
      <ItemData ItemOID="IT.QSSL.QSDTC" Value="2013-04-10"/>
      <ItemData ItemOID="IT.QSSL.QSDY" Value="171"/>
    </ItemGroupData>
    <ItemGroupData ItemGroupOID="IG.QSSL" data:ItemGroupDataSeq="62">
      <ItemData ItemOID="IT.QSSL.STUDYID" Value="CDISCPILOT01"/>
      <ItemData ItemOID="IT.QSSL.DOMAIN" Value="QS"/>
      <ItemData ItemOID="IT.QSSL.USUBJID" Value="CDISC009"/>
      <ItemData ItemOID="IT.QSSL.QSSEQ" Value="45"/>
      <ItemData ItemOID="IT.QSSL.QSTESTCD" Value="SWLS0102"/>
      <ItemData ItemOID="IT.QSSL.QSTEST" Value="SWLS01-My Life Conditions are Excellent"/>
      <ItemData ItemOID="IT.QSSL.QSCAT" Value="SWLS"/>
      <ItemData ItemOID="IT.QSSL.QSORRES" Value="Neither agree nor disagree"/>
      <ItemData ItemOID="IT.QSSL.QSSTRESC" Value="4"/>
      <ItemData ItemOID="IT.QSSL.QSSTRESN" Value="4"/>
      <ItemData ItemOID="IT.QSSL.VISITNUM" Value="12"/>
      <ItemData ItemOID="IT.QSSL.VISIT" Value="WEEK 24"/>
      <ItemData ItemOID="IT.QSSL.EPOCH" Value="TREATMENT"/>
      <ItemData ItemOID="IT.QSSL.QSDTC" Value="2013-04-10"/>
      <ItemData ItemOID="IT.QSSL.QSDY" Value="171"/>
    </ItemGroupData>
    <ItemGroupData ItemGroupOID="IG.QSSL" data:ItemGroupDataSeq="63">
      <ItemData ItemOID="IT.QSSL.STUDYID" Value="CDISCPILOT01"/>
      <ItemData ItemOID="IT.QSSL.DOMAIN" Value="QS"/>
      <ItemData ItemOID="IT.QSSL.USUBJID" Value="CDISC009"/>
      <ItemData ItemOID="IT.QSSL.QSSEQ" Value="46"/>
      <ItemData ItemOID="IT.QSSL.QSTESTCD" Value="SWLS0103"/>
      <ItemData ItemOID="IT.QSSL.QSTEST" Value="SWLS01-I Am Satisfied with My Life"/>
      <ItemData ItemOID="IT.QSSL.QSCAT" Value="SWLS"/>
      <ItemData ItemOID="IT.QSSL.QSORRES" Value="Slightly agree"/>
      <ItemData ItemOID="IT.QSSL.QSSTRESC" Value="5"/>
      <ItemData ItemOID="IT.QSSL.QSSTRESN" Value="5"/>
      <ItemData ItemOID="IT.QSSL.VISITNUM" Value="12"/>
      <ItemData ItemOID="IT.QSSL.VISIT" Value="WEEK 24"/>
      <ItemData ItemOID="IT.QSSL.EPOCH" Value="TREATMENT"/>
      <ItemData ItemOID="IT.QSSL.QSDTC" Value="2013-04-10"/>
      <ItemData ItemOID="IT.QSSL.QSDY" Value="171"/>
    </ItemGroupData>
    <ItemGroupData ItemGroupOID="IG.QSSL" data:ItemGroupDataSeq="64">
      <ItemData ItemOID="IT.QSSL.STUDYID" Value="CDISCPILOT01"/>
      <ItemData ItemOID="IT.QSSL.DOMAIN" Value="QS"/>
      <ItemData ItemOID="IT.QSSL.USUBJID" Value="CDISC009"/>
      <ItemData ItemOID="IT.QSSL.QSSEQ" Value="47"/>
      <ItemData ItemOID="IT.QSSL.QSTESTCD" Value="SWLS0104"/>
      <ItemData ItemOID="IT.QSSL.QSTEST" Value="SWLS01-Have Gotten Important Things"/>
      <ItemData ItemOID="IT.QSSL.QSCAT" Value="SWLS"/>
      <ItemData ItemOID="IT.QSSL.QSORRES" Value="Slightly agree"/>
      <ItemData ItemOID="IT.QSSL.QSSTRESC" Value="5"/>
      <ItemData ItemOID="IT.QSSL.QSSTRESN" Value="5"/>
      <ItemData ItemOID="IT.QSSL.VISITNUM" Value="12"/>
      <ItemData ItemOID="IT.QSSL.VISIT" Value="WEEK 24"/>
      <ItemData ItemOID="IT.QSSL.EPOCH" Value="TREATMENT"/>
      <ItemData ItemOID="IT.QSSL.QSDTC" Value="2013-04-10"/>
      <ItemData ItemOID="IT.QSSL.QSDY" Value="171"/>
    </ItemGroupData>
    <ItemGroupData ItemGroupOID="IG.QSSL" data:ItemGroupDataSeq="65">
      <ItemData ItemOID="IT.QSSL.STUDYID" Value="CDISCPILOT01"/>
      <ItemData ItemOID="IT.QSSL.DOMAIN" Value="QS"/>
      <ItemData ItemOID="IT.QSSL.USUBJID" Value="CDISC009"/>
      <ItemData ItemOID="IT.QSSL.QSSEQ" Value="48"/>
      <ItemData ItemOID="IT.QSSL.QSTESTCD" Value="SWLS0105"/>
      <ItemData ItemOID="IT.QSSL.QSTEST" Value="SWLS01-Live Life Over Change Nothing"/>
      <ItemData ItemOID="IT.QSSL.QSCAT" Value="SWLS"/>
      <ItemData ItemOID="IT.QSSL.QSORRES" Value="Agree"/>
      <ItemData ItemOID="IT.QSSL.QSSTRESC" Value="6"/>
      <ItemData ItemOID="IT.QSSL.QSSTRESN" Value="6"/>
      <ItemData ItemOID="IT.QSSL.VISITNUM" Value="12"/>
      <ItemData ItemOID="IT.QSSL.VISIT" Value="WEEK 24"/>
      <ItemData ItemOID="IT.QSSL.EPOCH" Value="TREATMENT"/>
      <ItemData ItemOID="IT.QSSL.QSDTC" Value="2013-04-10"/>
      <ItemData ItemOID="IT.QSSL.QSDY" Value="171"/>
    </ItemGroupData>
    <ItemGroupData ItemGroupOID="IG.QSSL" data:ItemGroupDataSeq="66">
      <ItemData ItemOID="IT.QSSL.STUDYID" Value="CDISCPILOT01"/>
      <ItemData ItemOID="IT.QSSL.DOMAIN" Value="QS"/>
      <ItemData ItemOID="IT.QSSL.USUBJID" Value="CDISC011"/>
      <ItemData ItemOID="IT.QSSL.QSSEQ" Value="12"/>
      <ItemData ItemOID="IT.QSSL.QSTESTCD" Value="SWLS0101"/>
      <ItemData ItemOID="IT.QSSL.QSTEST" Value="SWLS01-My Life is Close to Ideal"/>
      <ItemData ItemOID="IT.QSSL.QSCAT" Value="SWLS"/>
      <ItemData ItemOID="IT.QSSL.QSORRES" Value="Slightly disagree"/>
      <ItemData ItemOID="IT.QSSL.QSSTRESC" Value="3"/>
      <ItemData ItemOID="IT.QSSL.QSSTRESN" Value="3"/>
      <ItemData ItemOID="IT.QSSL.VISITNUM" Value="3"/>
      <ItemData ItemOID="IT.QSSL.VISIT" Value="BASELINE"/>
      <ItemData ItemOID="IT.QSSL.EPOCH" Value="SCREENING"/>
      <ItemData ItemOID="IT.QSSL.QSDTC" Value="2012-12-07"/>
      <ItemData ItemOID="IT.QSSL.QSDY" Value="1"/>
    </ItemGroupData>
    <ItemGroupData ItemGroupOID="IG.QSSL" data:ItemGroupDataSeq="67">
      <ItemData ItemOID="IT.QSSL.STUDYID" Value="CDISCPILOT01"/>
      <ItemData ItemOID="IT.QSSL.DOMAIN" Value="QS"/>
      <ItemData ItemOID="IT.QSSL.USUBJID" Value="CDISC011"/>
      <ItemData ItemOID="IT.QSSL.QSSEQ" Value="13"/>
      <ItemData ItemOID="IT.QSSL.QSTESTCD" Value="SWLS0102"/>
      <ItemData ItemOID="IT.QSSL.QSTEST" Value="SWLS01-My Life Conditions are Excellent"/>
      <ItemData ItemOID="IT.QSSL.QSCAT" Value="SWLS"/>
      <ItemData ItemOID="IT.QSSL.QSORRES" Value="Neither agree nor disagree"/>
      <ItemData ItemOID="IT.QSSL.QSSTRESC" Value="4"/>
      <ItemData ItemOID="IT.QSSL.QSSTRESN" Value="4"/>
      <ItemData ItemOID="IT.QSSL.VISITNUM" Value="3"/>
      <ItemData ItemOID="IT.QSSL.VISIT" Value="BASELINE"/>
      <ItemData ItemOID="IT.QSSL.EPOCH" Value="SCREENING"/>
      <ItemData ItemOID="IT.QSSL.QSDTC" Value="2012-12-07"/>
      <ItemData ItemOID="IT.QSSL.QSDY" Value="1"/>
    </ItemGroupData>
    <ItemGroupData ItemGroupOID="IG.QSSL" data:ItemGroupDataSeq="68">
      <ItemData ItemOID="IT.QSSL.STUDYID" Value="CDISCPILOT01"/>
      <ItemData ItemOID="IT.QSSL.DOMAIN" Value="QS"/>
      <ItemData ItemOID="IT.QSSL.USUBJID" Value="CDISC011"/>
      <ItemData ItemOID="IT.QSSL.QSSEQ" Value="14"/>
      <ItemData ItemOID="IT.QSSL.QSTESTCD" Value="SWLS0103"/>
      <ItemData ItemOID="IT.QSSL.QSTEST" Value="SWLS01-I Am Satisfied with My Life"/>
      <ItemData ItemOID="IT.QSSL.QSCAT" Value="SWLS"/>
      <ItemData ItemOID="IT.QSSL.QSORRES" Value="Neither agree nor disagree"/>
      <ItemData ItemOID="IT.QSSL.QSSTRESC" Value="4"/>
      <ItemData ItemOID="IT.QSSL.QSSTRESN" Value="4"/>
      <ItemData ItemOID="IT.QSSL.VISITNUM" Value="3"/>
      <ItemData ItemOID="IT.QSSL.VISIT" Value="BASELINE"/>
      <ItemData ItemOID="IT.QSSL.EPOCH" Value="SCREENING"/>
      <ItemData ItemOID="IT.QSSL.QSDTC" Value="2012-12-07"/>
      <ItemData ItemOID="IT.QSSL.QSDY" Value="1"/>
    </ItemGroupData>
    <ItemGroupData ItemGroupOID="IG.QSSL" data:ItemGroupDataSeq="69">
      <ItemData ItemOID="IT.QSSL.STUDYID" Value="CDISCPILOT01"/>
      <ItemData ItemOID="IT.QSSL.DOMAIN" Value="QS"/>
      <ItemData ItemOID="IT.QSSL.USUBJID" Value="CDISC011"/>
      <ItemData ItemOID="IT.QSSL.QSSEQ" Value="15"/>
      <ItemData ItemOID="IT.QSSL.QSTESTCD" Value="SWLS0104"/>
      <ItemData ItemOID="IT.QSSL.QSTEST" Value="SWLS01-Have Gotten Important Things"/>
      <ItemData ItemOID="IT.QSSL.QSCAT" Value="SWLS"/>
      <ItemData ItemOID="IT.QSSL.QSORRES" Value="Slightly disagree"/>
      <ItemData ItemOID="IT.QSSL.QSSTRESC" Value="3"/>
      <ItemData ItemOID="IT.QSSL.QSSTRESN" Value="3"/>
      <ItemData ItemOID="IT.QSSL.VISITNUM" Value="3"/>
      <ItemData ItemOID="IT.QSSL.VISIT" Value="BASELINE"/>
      <ItemData ItemOID="IT.QSSL.EPOCH" Value="SCREENING"/>
      <ItemData ItemOID="IT.QSSL.QSDTC" Value="2012-12-07"/>
      <ItemData ItemOID="IT.QSSL.QSDY" Value="1"/>
    </ItemGroupData>
    <ItemGroupData ItemGroupOID="IG.QSSL" data:ItemGroupDataSeq="70">
      <ItemData ItemOID="IT.QSSL.STUDYID" Value="CDISCPILOT01"/>
      <ItemData ItemOID="IT.QSSL.DOMAIN" Value="QS"/>
      <ItemData ItemOID="IT.QSSL.USUBJID" Value="CDISC011"/>
      <ItemData ItemOID="IT.QSSL.QSSEQ" Value="16"/>
      <ItemData ItemOID="IT.QSSL.QSTESTCD" Value="SWLS0105"/>
      <ItemData ItemOID="IT.QSSL.QSTEST" Value="SWLS01-Live Life Over Change Nothing"/>
      <ItemData ItemOID="IT.QSSL.QSCAT" Value="SWLS"/>
      <ItemData ItemOID="IT.QSSL.QSORRES" Value="Neither agree nor disagree"/>
      <ItemData ItemOID="IT.QSSL.QSSTRESC" Value="4"/>
      <ItemData ItemOID="IT.QSSL.QSSTRESN" Value="4"/>
      <ItemData ItemOID="IT.QSSL.VISITNUM" Value="3"/>
      <ItemData ItemOID="IT.QSSL.VISIT" Value="BASELINE"/>
      <ItemData ItemOID="IT.QSSL.EPOCH" Value="SCREENING"/>
      <ItemData ItemOID="IT.QSSL.QSDTC" Value="2012-12-07"/>
      <ItemData ItemOID="IT.QSSL.QSDY" Value="1"/>
    </ItemGroupData>
    <ItemGroupData ItemGroupOID="IG.QSSL" data:ItemGroupDataSeq="71">
      <ItemData ItemOID="IT.QSSL.STUDYID" Value="CDISCPILOT01"/>
      <ItemData ItemOID="IT.QSSL.DOMAIN" Value="QS"/>
      <ItemData ItemOID="IT.QSSL.USUBJID" Value="CDISC011"/>
      <ItemData ItemOID="IT.QSSL.QSSEQ" Value="39"/>
      <ItemData ItemOID="IT.QSSL.QSTESTCD" Value="SWLS0101"/>
      <ItemData ItemOID="IT.QSSL.QSTEST" Value="SWLS01-My Life is Close to Ideal"/>
      <ItemData ItemOID="IT.QSSL.QSCAT" Value="SWLS"/>
      <ItemData ItemOID="IT.QSSL.QSORRES" Value="Slightly disagree"/>
      <ItemData ItemOID="IT.QSSL.QSSTRESC" Value="3"/>
      <ItemData ItemOID="IT.QSSL.QSSTRESN" Value="3"/>
      <ItemData ItemOID="IT.QSSL.VISITNUM" Value="12"/>
      <ItemData ItemOID="IT.QSSL.VISIT" Value="WEEK 24"/>
      <ItemData ItemOID="IT.QSSL.EPOCH" Value="TREATMENT"/>
      <ItemData ItemOID="IT.QSSL.QSDTC" Value="2013-05-22"/>
      <ItemData ItemOID="IT.QSSL.QSDY" Value="167"/>
    </ItemGroupData>
    <ItemGroupData ItemGroupOID="IG.QSSL" data:ItemGroupDataSeq="72">
      <ItemData ItemOID="IT.QSSL.STUDYID" Value="CDISCPILOT01"/>
      <ItemData ItemOID="IT.QSSL.DOMAIN" Value="QS"/>
      <ItemData ItemOID="IT.QSSL.USUBJID" Value="CDISC011"/>
      <ItemData ItemOID="IT.QSSL.QSSEQ" Value="40"/>
      <ItemData ItemOID="IT.QSSL.QSTESTCD" Value="SWLS0102"/>
      <ItemData ItemOID="IT.QSSL.QSTEST" Value="SWLS01-My Life Conditions are Excellent"/>
      <ItemData ItemOID="IT.QSSL.QSCAT" Value="SWLS"/>
      <ItemData ItemOID="IT.QSSL.QSORRES" Value="Neither agree nor disagree"/>
      <ItemData ItemOID="IT.QSSL.QSSTRESC" Value="4"/>
      <ItemData ItemOID="IT.QSSL.QSSTRESN" Value="4"/>
      <ItemData ItemOID="IT.QSSL.VISITNUM" Value="12"/>
      <ItemData ItemOID="IT.QSSL.VISIT" Value="WEEK 24"/>
      <ItemData ItemOID="IT.QSSL.EPOCH" Value="TREATMENT"/>
      <ItemData ItemOID="IT.QSSL.QSDTC" Value="2013-05-22"/>
      <ItemData ItemOID="IT.QSSL.QSDY" Value="167"/>
    </ItemGroupData>
    <ItemGroupData ItemGroupOID="IG.QSSL" data:ItemGroupDataSeq="73">
      <ItemData ItemOID="IT.QSSL.STUDYID" Value="CDISCPILOT01"/>
      <ItemData ItemOID="IT.QSSL.DOMAIN" Value="QS"/>
      <ItemData ItemOID="IT.QSSL.USUBJID" Value="CDISC011"/>
      <ItemData ItemOID="IT.QSSL.QSSEQ" Value="41"/>
      <ItemData ItemOID="IT.QSSL.QSTESTCD" Value="SWLS0103"/>
      <ItemData ItemOID="IT.QSSL.QSTEST" Value="SWLS01-I Am Satisfied with My Life"/>
      <ItemData ItemOID="IT.QSSL.QSCAT" Value="SWLS"/>
      <ItemData ItemOID="IT.QSSL.QSORRES" Value="Neither agree nor disagree"/>
      <ItemData ItemOID="IT.QSSL.QSSTRESC" Value="4"/>
      <ItemData ItemOID="IT.QSSL.QSSTRESN" Value="4"/>
      <ItemData ItemOID="IT.QSSL.VISITNUM" Value="12"/>
      <ItemData ItemOID="IT.QSSL.VISIT" Value="WEEK 24"/>
      <ItemData ItemOID="IT.QSSL.EPOCH" Value="TREATMENT"/>
      <ItemData ItemOID="IT.QSSL.QSDTC" Value="2013-05-22"/>
      <ItemData ItemOID="IT.QSSL.QSDY" Value="167"/>
    </ItemGroupData>
    <ItemGroupData ItemGroupOID="IG.QSSL" data:ItemGroupDataSeq="74">
      <ItemData ItemOID="IT.QSSL.STUDYID" Value="CDISCPILOT01"/>
      <ItemData ItemOID="IT.QSSL.DOMAIN" Value="QS"/>
      <ItemData ItemOID="IT.QSSL.USUBJID" Value="CDISC011"/>
      <ItemData ItemOID="IT.QSSL.QSSEQ" Value="42"/>
      <ItemData ItemOID="IT.QSSL.QSTESTCD" Value="SWLS0104"/>
      <ItemData ItemOID="IT.QSSL.QSTEST" Value="SWLS01-Have Gotten Important Things"/>
      <ItemData ItemOID="IT.QSSL.QSCAT" Value="SWLS"/>
      <ItemData ItemOID="IT.QSSL.QSORRES" Value="Slightly disagree"/>
      <ItemData ItemOID="IT.QSSL.QSSTRESC" Value="3"/>
      <ItemData ItemOID="IT.QSSL.QSSTRESN" Value="3"/>
      <ItemData ItemOID="IT.QSSL.VISITNUM" Value="12"/>
      <ItemData ItemOID="IT.QSSL.VISIT" Value="WEEK 24"/>
      <ItemData ItemOID="IT.QSSL.EPOCH" Value="TREATMENT"/>
      <ItemData ItemOID="IT.QSSL.QSDTC" Value="2013-05-22"/>
      <ItemData ItemOID="IT.QSSL.QSDY" Value="167"/>
    </ItemGroupData>
    <ItemGroupData ItemGroupOID="IG.QSSL" data:ItemGroupDataSeq="75">
      <ItemData ItemOID="IT.QSSL.STUDYID" Value="CDISCPILOT01"/>
      <ItemData ItemOID="IT.QSSL.DOMAIN" Value="QS"/>
      <ItemData ItemOID="IT.QSSL.USUBJID" Value="CDISC011"/>
      <ItemData ItemOID="IT.QSSL.QSSEQ" Value="43"/>
      <ItemData ItemOID="IT.QSSL.QSTESTCD" Value="SWLS0105"/>
      <ItemData ItemOID="IT.QSSL.QSTEST" Value="SWLS01-Live Life Over Change Nothing"/>
      <ItemData ItemOID="IT.QSSL.QSCAT" Value="SWLS"/>
      <ItemData ItemOID="IT.QSSL.QSORRES" Value="Neither agree nor disagree"/>
      <ItemData ItemOID="IT.QSSL.QSSTRESC" Value="4"/>
      <ItemData ItemOID="IT.QSSL.QSSTRESN" Value="4"/>
      <ItemData ItemOID="IT.QSSL.VISITNUM" Value="12"/>
      <ItemData ItemOID="IT.QSSL.VISIT" Value="WEEK 24"/>
      <ItemData ItemOID="IT.QSSL.EPOCH" Value="TREATMENT"/>
      <ItemData ItemOID="IT.QSSL.QSDTC" Value="2013-05-22"/>
      <ItemData ItemOID="IT.QSSL.QSDY" Value="167"/>
    </ItemGroupData>
    <ItemGroupData ItemGroupOID="IG.QSSL" data:ItemGroupDataSeq="76">
      <ItemData ItemOID="IT.QSSL.STUDYID" Value="CDISCPILOT01"/>
      <ItemData ItemOID="IT.QSSL.DOMAIN" Value="QS"/>
      <ItemData ItemOID="IT.QSSL.USUBJID" Value="CDISC012"/>
      <ItemData ItemOID="IT.QSSL.QSSEQ" Value="12"/>
      <ItemData ItemOID="IT.QSSL.QSTESTCD" Value="SWLS0101"/>
      <ItemData ItemOID="IT.QSSL.QSTEST" Value="SWLS01-My Life is Close to Ideal"/>
      <ItemData ItemOID="IT.QSSL.QSCAT" Value="SWLS"/>
      <ItemData ItemOID="IT.QSSL.QSORRES" Value="Agree"/>
      <ItemData ItemOID="IT.QSSL.QSSTRESC" Value="6"/>
      <ItemData ItemOID="IT.QSSL.QSSTRESN" Value="6"/>
      <ItemData ItemOID="IT.QSSL.QSLOBXFL" Value="Y"/>
      <ItemData ItemOID="IT.QSSL.VISITNUM" Value="3"/>
      <ItemData ItemOID="IT.QSSL.VISIT" Value="BASELINE"/>
      <ItemData ItemOID="IT.QSSL.EPOCH" Value="SCREENING"/>
      <ItemData ItemOID="IT.QSSL.QSDTC" Value="2013-09-03"/>
      <ItemData ItemOID="IT.QSSL.QSDY" Value="1"/>
    </ItemGroupData>
    <ItemGroupData ItemGroupOID="IG.QSSL" data:ItemGroupDataSeq="77">
      <ItemData ItemOID="IT.QSSL.STUDYID" Value="CDISCPILOT01"/>
      <ItemData ItemOID="IT.QSSL.DOMAIN" Value="QS"/>
      <ItemData ItemOID="IT.QSSL.USUBJID" Value="CDISC012"/>
      <ItemData ItemOID="IT.QSSL.QSSEQ" Value="13"/>
      <ItemData ItemOID="IT.QSSL.QSTESTCD" Value="SWLS0102"/>
      <ItemData ItemOID="IT.QSSL.QSTEST" Value="SWLS01-My Life Conditions are Excellent"/>
      <ItemData ItemOID="IT.QSSL.QSCAT" Value="SWLS"/>
      <ItemData ItemOID="IT.QSSL.QSORRES" Value="Slightly agree"/>
      <ItemData ItemOID="IT.QSSL.QSSTRESC" Value="5"/>
      <ItemData ItemOID="IT.QSSL.QSSTRESN" Value="5"/>
      <ItemData ItemOID="IT.QSSL.QSLOBXFL" Value="Y"/>
      <ItemData ItemOID="IT.QSSL.VISITNUM" Value="3"/>
      <ItemData ItemOID="IT.QSSL.VISIT" Value="BASELINE"/>
      <ItemData ItemOID="IT.QSSL.EPOCH" Value="SCREENING"/>
      <ItemData ItemOID="IT.QSSL.QSDTC" Value="2013-09-03"/>
      <ItemData ItemOID="IT.QSSL.QSDY" Value="1"/>
    </ItemGroupData>
    <ItemGroupData ItemGroupOID="IG.QSSL" data:ItemGroupDataSeq="78">
      <ItemData ItemOID="IT.QSSL.STUDYID" Value="CDISCPILOT01"/>
      <ItemData ItemOID="IT.QSSL.DOMAIN" Value="QS"/>
      <ItemData ItemOID="IT.QSSL.USUBJID" Value="CDISC012"/>
      <ItemData ItemOID="IT.QSSL.QSSEQ" Value="14"/>
      <ItemData ItemOID="IT.QSSL.QSTESTCD" Value="SWLS0103"/>
      <ItemData ItemOID="IT.QSSL.QSTEST" Value="SWLS01-I Am Satisfied with My Life"/>
      <ItemData ItemOID="IT.QSSL.QSCAT" Value="SWLS"/>
      <ItemData ItemOID="IT.QSSL.QSORRES" Value="Strongly agree"/>
      <ItemData ItemOID="IT.QSSL.QSSTRESC" Value="7"/>
      <ItemData ItemOID="IT.QSSL.QSSTRESN" Value="7"/>
      <ItemData ItemOID="IT.QSSL.QSLOBXFL" Value="Y"/>
      <ItemData ItemOID="IT.QSSL.VISITNUM" Value="3"/>
      <ItemData ItemOID="IT.QSSL.VISIT" Value="BASELINE"/>
      <ItemData ItemOID="IT.QSSL.EPOCH" Value="SCREENING"/>
      <ItemData ItemOID="IT.QSSL.QSDTC" Value="2013-09-03"/>
      <ItemData ItemOID="IT.QSSL.QSDY" Value="1"/>
    </ItemGroupData>
    <ItemGroupData ItemGroupOID="IG.QSSL" data:ItemGroupDataSeq="79">
      <ItemData ItemOID="IT.QSSL.STUDYID" Value="CDISCPILOT01"/>
      <ItemData ItemOID="IT.QSSL.DOMAIN" Value="QS"/>
      <ItemData ItemOID="IT.QSSL.USUBJID" Value="CDISC012"/>
      <ItemData ItemOID="IT.QSSL.QSSEQ" Value="15"/>
      <ItemData ItemOID="IT.QSSL.QSTESTCD" Value="SWLS0104"/>
      <ItemData ItemOID="IT.QSSL.QSTEST" Value="SWLS01-Have Gotten Important Things"/>
      <ItemData ItemOID="IT.QSSL.QSCAT" Value="SWLS"/>
      <ItemData ItemOID="IT.QSSL.QSORRES" Value="Slightly agree"/>
      <ItemData ItemOID="IT.QSSL.QSSTRESC" Value="5"/>
      <ItemData ItemOID="IT.QSSL.QSSTRESN" Value="5"/>
      <ItemData ItemOID="IT.QSSL.QSLOBXFL" Value="Y"/>
      <ItemData ItemOID="IT.QSSL.VISITNUM" Value="3"/>
      <ItemData ItemOID="IT.QSSL.VISIT" Value="BASELINE"/>
      <ItemData ItemOID="IT.QSSL.EPOCH" Value="SCREENING"/>
      <ItemData ItemOID="IT.QSSL.QSDTC" Value="2013-09-03"/>
      <ItemData ItemOID="IT.QSSL.QSDY" Value="1"/>
    </ItemGroupData>
    <ItemGroupData ItemGroupOID="IG.QSSL" data:ItemGroupDataSeq="80">
      <ItemData ItemOID="IT.QSSL.STUDYID" Value="CDISCPILOT01"/>
      <ItemData ItemOID="IT.QSSL.DOMAIN" Value="QS"/>
      <ItemData ItemOID="IT.QSSL.USUBJID" Value="CDISC012"/>
      <ItemData ItemOID="IT.QSSL.QSSEQ" Value="16"/>
      <ItemData ItemOID="IT.QSSL.QSTESTCD" Value="SWLS0105"/>
      <ItemData ItemOID="IT.QSSL.QSTEST" Value="SWLS01-Live Life Over Change Nothing"/>
      <ItemData ItemOID="IT.QSSL.QSCAT" Value="SWLS"/>
      <ItemData ItemOID="IT.QSSL.QSORRES" Value="Agree"/>
      <ItemData ItemOID="IT.QSSL.QSSTRESC" Value="6"/>
      <ItemData ItemOID="IT.QSSL.QSSTRESN" Value="6"/>
      <ItemData ItemOID="IT.QSSL.QSLOBXFL" Value="Y"/>
      <ItemData ItemOID="IT.QSSL.VISITNUM" Value="3"/>
      <ItemData ItemOID="IT.QSSL.VISIT" Value="BASELINE"/>
      <ItemData ItemOID="IT.QSSL.EPOCH" Value="SCREENING"/>
      <ItemData ItemOID="IT.QSSL.QSDTC" Value="2013-09-03"/>
      <ItemData ItemOID="IT.QSSL.QSDY" Value="1"/>
    </ItemGroupData>
    <ItemGroupData ItemGroupOID="IG.QSSL" data:ItemGroupDataSeq="81">
      <ItemData ItemOID="IT.QSSL.STUDYID" Value="CDISCPILOT01"/>
      <ItemData ItemOID="IT.QSSL.DOMAIN" Value="QS"/>
      <ItemData ItemOID="IT.QSSL.USUBJID" Value="CDISC014"/>
      <ItemData ItemOID="IT.QSSL.QSSEQ" Value="12"/>
      <ItemData ItemOID="IT.QSSL.QSTESTCD" Value="SWLS0101"/>
      <ItemData ItemOID="IT.QSSL.QSTEST" Value="SWLS01-My Life is Close to Ideal"/>
      <ItemData ItemOID="IT.QSSL.QSCAT" Value="SWLS"/>
      <ItemData ItemOID="IT.QSSL.QSORRES" Value="Agree"/>
      <ItemData ItemOID="IT.QSSL.QSSTRESC" Value="6"/>
      <ItemData ItemOID="IT.QSSL.QSSTRESN" Value="6"/>
      <ItemData ItemOID="IT.QSSL.QSLOBXFL" Value="Y"/>
      <ItemData ItemOID="IT.QSSL.VISITNUM" Value="3"/>
      <ItemData ItemOID="IT.QSSL.VISIT" Value="BASELINE"/>
      <ItemData ItemOID="IT.QSSL.EPOCH" Value="SCREENING"/>
      <ItemData ItemOID="IT.QSSL.QSDTC" Value="2013-04-03"/>
      <ItemData ItemOID="IT.QSSL.QSDY" Value="1"/>
    </ItemGroupData>
    <ItemGroupData ItemGroupOID="IG.QSSL" data:ItemGroupDataSeq="82">
      <ItemData ItemOID="IT.QSSL.STUDYID" Value="CDISCPILOT01"/>
      <ItemData ItemOID="IT.QSSL.DOMAIN" Value="QS"/>
      <ItemData ItemOID="IT.QSSL.USUBJID" Value="CDISC014"/>
      <ItemData ItemOID="IT.QSSL.QSSEQ" Value="13"/>
      <ItemData ItemOID="IT.QSSL.QSTESTCD" Value="SWLS0102"/>
      <ItemData ItemOID="IT.QSSL.QSTEST" Value="SWLS01-My Life Conditions are Excellent"/>
      <ItemData ItemOID="IT.QSSL.QSCAT" Value="SWLS"/>
      <ItemData ItemOID="IT.QSSL.QSORRES" Value="Strongly agree"/>
      <ItemData ItemOID="IT.QSSL.QSSTRESC" Value="7"/>
      <ItemData ItemOID="IT.QSSL.QSSTRESN" Value="7"/>
      <ItemData ItemOID="IT.QSSL.QSLOBXFL" Value="Y"/>
      <ItemData ItemOID="IT.QSSL.VISITNUM" Value="3"/>
      <ItemData ItemOID="IT.QSSL.VISIT" Value="BASELINE"/>
      <ItemData ItemOID="IT.QSSL.EPOCH" Value="SCREENING"/>
      <ItemData ItemOID="IT.QSSL.QSDTC" Value="2013-04-03"/>
      <ItemData ItemOID="IT.QSSL.QSDY" Value="1"/>
    </ItemGroupData>
    <ItemGroupData ItemGroupOID="IG.QSSL" data:ItemGroupDataSeq="83">
      <ItemData ItemOID="IT.QSSL.STUDYID" Value="CDISCPILOT01"/>
      <ItemData ItemOID="IT.QSSL.DOMAIN" Value="QS"/>
      <ItemData ItemOID="IT.QSSL.USUBJID" Value="CDISC014"/>
      <ItemData ItemOID="IT.QSSL.QSSEQ" Value="14"/>
      <ItemData ItemOID="IT.QSSL.QSTESTCD" Value="SWLS0103"/>
      <ItemData ItemOID="IT.QSSL.QSTEST" Value="SWLS01-I Am Satisfied with My Life"/>
      <ItemData ItemOID="IT.QSSL.QSCAT" Value="SWLS"/>
      <ItemData ItemOID="IT.QSSL.QSORRES" Value="Agree"/>
      <ItemData ItemOID="IT.QSSL.QSSTRESC" Value="6"/>
      <ItemData ItemOID="IT.QSSL.QSSTRESN" Value="6"/>
      <ItemData ItemOID="IT.QSSL.QSLOBXFL" Value="Y"/>
      <ItemData ItemOID="IT.QSSL.VISITNUM" Value="3"/>
      <ItemData ItemOID="IT.QSSL.VISIT" Value="BASELINE"/>
      <ItemData ItemOID="IT.QSSL.EPOCH" Value="SCREENING"/>
      <ItemData ItemOID="IT.QSSL.QSDTC" Value="2013-04-03"/>
      <ItemData ItemOID="IT.QSSL.QSDY" Value="1"/>
    </ItemGroupData>
    <ItemGroupData ItemGroupOID="IG.QSSL" data:ItemGroupDataSeq="84">
      <ItemData ItemOID="IT.QSSL.STUDYID" Value="CDISCPILOT01"/>
      <ItemData ItemOID="IT.QSSL.DOMAIN" Value="QS"/>
      <ItemData ItemOID="IT.QSSL.USUBJID" Value="CDISC014"/>
      <ItemData ItemOID="IT.QSSL.QSSEQ" Value="15"/>
      <ItemData ItemOID="IT.QSSL.QSTESTCD" Value="SWLS0104"/>
      <ItemData ItemOID="IT.QSSL.QSTEST" Value="SWLS01-Have Gotten Important Things"/>
      <ItemData ItemOID="IT.QSSL.QSCAT" Value="SWLS"/>
      <ItemData ItemOID="IT.QSSL.QSORRES" Value="Slightly agree"/>
      <ItemData ItemOID="IT.QSSL.QSSTRESC" Value="5"/>
      <ItemData ItemOID="IT.QSSL.QSSTRESN" Value="5"/>
      <ItemData ItemOID="IT.QSSL.QSLOBXFL" Value="Y"/>
      <ItemData ItemOID="IT.QSSL.VISITNUM" Value="3"/>
      <ItemData ItemOID="IT.QSSL.VISIT" Value="BASELINE"/>
      <ItemData ItemOID="IT.QSSL.EPOCH" Value="SCREENING"/>
      <ItemData ItemOID="IT.QSSL.QSDTC" Value="2013-04-03"/>
      <ItemData ItemOID="IT.QSSL.QSDY" Value="1"/>
    </ItemGroupData>
    <ItemGroupData ItemGroupOID="IG.QSSL" data:ItemGroupDataSeq="85">
      <ItemData ItemOID="IT.QSSL.STUDYID" Value="CDISCPILOT01"/>
      <ItemData ItemOID="IT.QSSL.DOMAIN" Value="QS"/>
      <ItemData ItemOID="IT.QSSL.USUBJID" Value="CDISC014"/>
      <ItemData ItemOID="IT.QSSL.QSSEQ" Value="16"/>
      <ItemData ItemOID="IT.QSSL.QSTESTCD" Value="SWLS0105"/>
      <ItemData ItemOID="IT.QSSL.QSTEST" Value="SWLS01-Live Life Over Change Nothing"/>
      <ItemData ItemOID="IT.QSSL.QSCAT" Value="SWLS"/>
      <ItemData ItemOID="IT.QSSL.QSORRES" Value="Agree"/>
      <ItemData ItemOID="IT.QSSL.QSSTRESC" Value="6"/>
      <ItemData ItemOID="IT.QSSL.QSSTRESN" Value="6"/>
      <ItemData ItemOID="IT.QSSL.QSLOBXFL" Value="Y"/>
      <ItemData ItemOID="IT.QSSL.VISITNUM" Value="3"/>
      <ItemData ItemOID="IT.QSSL.VISIT" Value="BASELINE"/>
      <ItemData ItemOID="IT.QSSL.EPOCH" Value="SCREENING"/>
      <ItemData ItemOID="IT.QSSL.QSDTC" Value="2013-04-03"/>
      <ItemData ItemOID="IT.QSSL.QSDY" Value="1"/>
    </ItemGroupData>
    <ItemGroupData ItemGroupOID="IG.QSSL" data:ItemGroupDataSeq="86">
      <ItemData ItemOID="IT.QSSL.STUDYID" Value="CDISCPILOT01"/>
      <ItemData ItemOID="IT.QSSL.DOMAIN" Value="QS"/>
      <ItemData ItemOID="IT.QSSL.USUBJID" Value="CDISC014"/>
      <ItemData ItemOID="IT.QSSL.QSSEQ" Value="28"/>
      <ItemData ItemOID="IT.QSSL.QSTESTCD" Value="SWLS0101"/>
      <ItemData ItemOID="IT.QSSL.QSTEST" Value="SWLS01-My Life is Close to Ideal"/>
      <ItemData ItemOID="IT.QSSL.QSCAT" Value="SWLS"/>
      <ItemData ItemOID="IT.QSSL.QSORRES" Value="Agree"/>
      <ItemData ItemOID="IT.QSSL.QSSTRESC" Value="6"/>
      <ItemData ItemOID="IT.QSSL.QSSTRESN" Value="6"/>
      <ItemData ItemOID="IT.QSSL.VISITNUM" Value="201"/>
      <ItemData ItemOID="IT.QSSL.VISIT" Value="EARLY DISCONTINUATION RETRIEVAL"/>
      <ItemData ItemOID="IT.QSSL.EPOCH" Value="TREATMENT"/>
      <ItemData ItemOID="IT.QSSL.QSDTC" Value="2013-09-18"/>
      <ItemData ItemOID="IT.QSSL.QSDY" Value="169"/>
    </ItemGroupData>
    <ItemGroupData ItemGroupOID="IG.QSSL" data:ItemGroupDataSeq="87">
      <ItemData ItemOID="IT.QSSL.STUDYID" Value="CDISCPILOT01"/>
      <ItemData ItemOID="IT.QSSL.DOMAIN" Value="QS"/>
      <ItemData ItemOID="IT.QSSL.USUBJID" Value="CDISC014"/>
      <ItemData ItemOID="IT.QSSL.QSSEQ" Value="29"/>
      <ItemData ItemOID="IT.QSSL.QSTESTCD" Value="SWLS0102"/>
      <ItemData ItemOID="IT.QSSL.QSTEST" Value="SWLS01-My Life Conditions are Excellent"/>
      <ItemData ItemOID="IT.QSSL.QSCAT" Value="SWLS"/>
      <ItemData ItemOID="IT.QSSL.QSORRES" Value="Strongly agree"/>
      <ItemData ItemOID="IT.QSSL.QSSTRESC" Value="7"/>
      <ItemData ItemOID="IT.QSSL.QSSTRESN" Value="7"/>
      <ItemData ItemOID="IT.QSSL.VISITNUM" Value="201"/>
      <ItemData ItemOID="IT.QSSL.VISIT" Value="EARLY DISCONTINUATION RETRIEVAL"/>
      <ItemData ItemOID="IT.QSSL.EPOCH" Value="TREATMENT"/>
      <ItemData ItemOID="IT.QSSL.QSDTC" Value="2013-09-18"/>
      <ItemData ItemOID="IT.QSSL.QSDY" Value="169"/>
    </ItemGroupData>
    <ItemGroupData ItemGroupOID="IG.QSSL" data:ItemGroupDataSeq="88">
      <ItemData ItemOID="IT.QSSL.STUDYID" Value="CDISCPILOT01"/>
      <ItemData ItemOID="IT.QSSL.DOMAIN" Value="QS"/>
      <ItemData ItemOID="IT.QSSL.USUBJID" Value="CDISC014"/>
      <ItemData ItemOID="IT.QSSL.QSSEQ" Value="30"/>
      <ItemData ItemOID="IT.QSSL.QSTESTCD" Value="SWLS0103"/>
      <ItemData ItemOID="IT.QSSL.QSTEST" Value="SWLS01-I Am Satisfied with My Life"/>
      <ItemData ItemOID="IT.QSSL.QSCAT" Value="SWLS"/>
      <ItemData ItemOID="IT.QSSL.QSORRES" Value="Agree"/>
      <ItemData ItemOID="IT.QSSL.QSSTRESC" Value="6"/>
      <ItemData ItemOID="IT.QSSL.QSSTRESN" Value="6"/>
      <ItemData ItemOID="IT.QSSL.VISITNUM" Value="201"/>
      <ItemData ItemOID="IT.QSSL.VISIT" Value="EARLY DISCONTINUATION RETRIEVAL"/>
      <ItemData ItemOID="IT.QSSL.EPOCH" Value="TREATMENT"/>
      <ItemData ItemOID="IT.QSSL.QSDTC" Value="2013-09-18"/>
      <ItemData ItemOID="IT.QSSL.QSDY" Value="169"/>
    </ItemGroupData>
    <ItemGroupData ItemGroupOID="IG.QSSL" data:ItemGroupDataSeq="89">
      <ItemData ItemOID="IT.QSSL.STUDYID" Value="CDISCPILOT01"/>
      <ItemData ItemOID="IT.QSSL.DOMAIN" Value="QS"/>
      <ItemData ItemOID="IT.QSSL.USUBJID" Value="CDISC014"/>
      <ItemData ItemOID="IT.QSSL.QSSEQ" Value="31"/>
      <ItemData ItemOID="IT.QSSL.QSTESTCD" Value="SWLS0104"/>
      <ItemData ItemOID="IT.QSSL.QSTEST" Value="SWLS01-Have Gotten Important Things"/>
      <ItemData ItemOID="IT.QSSL.QSCAT" Value="SWLS"/>
      <ItemData ItemOID="IT.QSSL.QSORRES" Value="Slightly agree"/>
      <ItemData ItemOID="IT.QSSL.QSSTRESC" Value="5"/>
      <ItemData ItemOID="IT.QSSL.QSSTRESN" Value="5"/>
      <ItemData ItemOID="IT.QSSL.VISITNUM" Value="201"/>
      <ItemData ItemOID="IT.QSSL.VISIT" Value="EARLY DISCONTINUATION RETRIEVAL"/>
      <ItemData ItemOID="IT.QSSL.EPOCH" Value="TREATMENT"/>
      <ItemData ItemOID="IT.QSSL.QSDTC" Value="2013-09-18"/>
      <ItemData ItemOID="IT.QSSL.QSDY" Value="169"/>
    </ItemGroupData>
    <ItemGroupData ItemGroupOID="IG.QSSL" data:ItemGroupDataSeq="90">
      <ItemData ItemOID="IT.QSSL.STUDYID" Value="CDISCPILOT01"/>
      <ItemData ItemOID="IT.QSSL.DOMAIN" Value="QS"/>
      <ItemData ItemOID="IT.QSSL.USUBJID" Value="CDISC014"/>
      <ItemData ItemOID="IT.QSSL.QSSEQ" Value="32"/>
      <ItemData ItemOID="IT.QSSL.QSTESTCD" Value="SWLS0105"/>
      <ItemData ItemOID="IT.QSSL.QSTEST" Value="SWLS01-Live Life Over Change Nothing"/>
      <ItemData ItemOID="IT.QSSL.QSCAT" Value="SWLS"/>
      <ItemData ItemOID="IT.QSSL.QSORRES" Value="Agree"/>
      <ItemData ItemOID="IT.QSSL.QSSTRESC" Value="6"/>
      <ItemData ItemOID="IT.QSSL.QSSTRESN" Value="6"/>
      <ItemData ItemOID="IT.QSSL.VISITNUM" Value="201"/>
      <ItemData ItemOID="IT.QSSL.VISIT" Value="EARLY DISCONTINUATION RETRIEVAL"/>
      <ItemData ItemOID="IT.QSSL.EPOCH" Value="TREATMENT"/>
      <ItemData ItemOID="IT.QSSL.QSDTC" Value="2013-09-18"/>
      <ItemData ItemOID="IT.QSSL.QSDY" Value="169"/>
    </ItemGroupData>
    <ItemGroupData ItemGroupOID="IG.QSSL" data:ItemGroupDataSeq="91">
      <ItemData ItemOID="IT.QSSL.STUDYID" Value="CDISCPILOT01"/>
      <ItemData ItemOID="IT.QSSL.DOMAIN" Value="QS"/>
      <ItemData ItemOID="IT.QSSL.USUBJID" Value="CDISC016"/>
      <ItemData ItemOID="IT.QSSL.QSSEQ" Value="12"/>
      <ItemData ItemOID="IT.QSSL.QSTESTCD" Value="SWLS0101"/>
      <ItemData ItemOID="IT.QSSL.QSTEST" Value="SWLS01-My Life is Close to Ideal"/>
      <ItemData ItemOID="IT.QSSL.QSCAT" Value="SWLS"/>
      <ItemData ItemOID="IT.QSSL.QSORRES" Value="Agree"/>
      <ItemData ItemOID="IT.QSSL.QSSTRESC" Value="6"/>
      <ItemData ItemOID="IT.QSSL.QSSTRESN" Value="6"/>
      <ItemData ItemOID="IT.QSSL.QSLOBXFL" Value="Y"/>
      <ItemData ItemOID="IT.QSSL.VISITNUM" Value="3"/>
      <ItemData ItemOID="IT.QSSL.VISIT" Value="BASELINE"/>
      <ItemData ItemOID="IT.QSSL.EPOCH" Value="SCREENING"/>
      <ItemData ItemOID="IT.QSSL.QSDTC" Value="2013-04-03"/>
      <ItemData ItemOID="IT.QSSL.QSDY" Value="1"/>
    </ItemGroupData>
    <ItemGroupData ItemGroupOID="IG.QSSL" data:ItemGroupDataSeq="92">
      <ItemData ItemOID="IT.QSSL.STUDYID" Value="CDISCPILOT01"/>
      <ItemData ItemOID="IT.QSSL.DOMAIN" Value="QS"/>
      <ItemData ItemOID="IT.QSSL.USUBJID" Value="CDISC016"/>
      <ItemData ItemOID="IT.QSSL.QSSEQ" Value="13"/>
      <ItemData ItemOID="IT.QSSL.QSTESTCD" Value="SWLS0102"/>
      <ItemData ItemOID="IT.QSSL.QSTEST" Value="SWLS01-My Life Conditions are Excellent"/>
      <ItemData ItemOID="IT.QSSL.QSCAT" Value="SWLS"/>
      <ItemData ItemOID="IT.QSSL.QSORRES" Value="Agree"/>
      <ItemData ItemOID="IT.QSSL.QSSTRESC" Value="6"/>
      <ItemData ItemOID="IT.QSSL.QSSTRESN" Value="6"/>
      <ItemData ItemOID="IT.QSSL.QSLOBXFL" Value="Y"/>
      <ItemData ItemOID="IT.QSSL.VISITNUM" Value="3"/>
      <ItemData ItemOID="IT.QSSL.VISIT" Value="BASELINE"/>
      <ItemData ItemOID="IT.QSSL.EPOCH" Value="SCREENING"/>
      <ItemData ItemOID="IT.QSSL.QSDTC" Value="2013-04-03"/>
      <ItemData ItemOID="IT.QSSL.QSDY" Value="1"/>
    </ItemGroupData>
    <ItemGroupData ItemGroupOID="IG.QSSL" data:ItemGroupDataSeq="93">
      <ItemData ItemOID="IT.QSSL.STUDYID" Value="CDISCPILOT01"/>
      <ItemData ItemOID="IT.QSSL.DOMAIN" Value="QS"/>
      <ItemData ItemOID="IT.QSSL.USUBJID" Value="CDISC016"/>
      <ItemData ItemOID="IT.QSSL.QSSEQ" Value="14"/>
      <ItemData ItemOID="IT.QSSL.QSTESTCD" Value="SWLS0103"/>
      <ItemData ItemOID="IT.QSSL.QSTEST" Value="SWLS01-I Am Satisfied with My Life"/>
      <ItemData ItemOID="IT.QSSL.QSCAT" Value="SWLS"/>
      <ItemData ItemOID="IT.QSSL.QSORRES" Value="Slightly agree"/>
      <ItemData ItemOID="IT.QSSL.QSSTRESC" Value="5"/>
      <ItemData ItemOID="IT.QSSL.QSSTRESN" Value="5"/>
      <ItemData ItemOID="IT.QSSL.QSLOBXFL" Value="Y"/>
      <ItemData ItemOID="IT.QSSL.VISITNUM" Value="3"/>
      <ItemData ItemOID="IT.QSSL.VISIT" Value="BASELINE"/>
      <ItemData ItemOID="IT.QSSL.EPOCH" Value="SCREENING"/>
      <ItemData ItemOID="IT.QSSL.QSDTC" Value="2013-04-03"/>
      <ItemData ItemOID="IT.QSSL.QSDY" Value="1"/>
    </ItemGroupData>
    <ItemGroupData ItemGroupOID="IG.QSSL" data:ItemGroupDataSeq="94">
      <ItemData ItemOID="IT.QSSL.STUDYID" Value="CDISCPILOT01"/>
      <ItemData ItemOID="IT.QSSL.DOMAIN" Value="QS"/>
      <ItemData ItemOID="IT.QSSL.USUBJID" Value="CDISC016"/>
      <ItemData ItemOID="IT.QSSL.QSSEQ" Value="15"/>
      <ItemData ItemOID="IT.QSSL.QSTESTCD" Value="SWLS0104"/>
      <ItemData ItemOID="IT.QSSL.QSTEST" Value="SWLS01-Have Gotten Important Things"/>
      <ItemData ItemOID="IT.QSSL.QSCAT" Value="SWLS"/>
      <ItemData ItemOID="IT.QSSL.QSORRES" Value="Slightly agree"/>
      <ItemData ItemOID="IT.QSSL.QSSTRESC" Value="5"/>
      <ItemData ItemOID="IT.QSSL.QSSTRESN" Value="5"/>
      <ItemData ItemOID="IT.QSSL.QSLOBXFL" Value="Y"/>
      <ItemData ItemOID="IT.QSSL.VISITNUM" Value="3"/>
      <ItemData ItemOID="IT.QSSL.VISIT" Value="BASELINE"/>
      <ItemData ItemOID="IT.QSSL.EPOCH" Value="SCREENING"/>
      <ItemData ItemOID="IT.QSSL.QSDTC" Value="2013-04-03"/>
      <ItemData ItemOID="IT.QSSL.QSDY" Value="1"/>
    </ItemGroupData>
    <ItemGroupData ItemGroupOID="IG.QSSL" data:ItemGroupDataSeq="95">
      <ItemData ItemOID="IT.QSSL.STUDYID" Value="CDISCPILOT01"/>
      <ItemData ItemOID="IT.QSSL.DOMAIN" Value="QS"/>
      <ItemData ItemOID="IT.QSSL.USUBJID" Value="CDISC016"/>
      <ItemData ItemOID="IT.QSSL.QSSEQ" Value="16"/>
      <ItemData ItemOID="IT.QSSL.QSTESTCD" Value="SWLS0105"/>
      <ItemData ItemOID="IT.QSSL.QSTEST" Value="SWLS01-Live Life Over Change Nothing"/>
      <ItemData ItemOID="IT.QSSL.QSCAT" Value="SWLS"/>
      <ItemData ItemOID="IT.QSSL.QSORRES" Value="Agree"/>
      <ItemData ItemOID="IT.QSSL.QSSTRESC" Value="6"/>
      <ItemData ItemOID="IT.QSSL.QSSTRESN" Value="6"/>
      <ItemData ItemOID="IT.QSSL.QSLOBXFL" Value="Y"/>
      <ItemData ItemOID="IT.QSSL.VISITNUM" Value="3"/>
      <ItemData ItemOID="IT.QSSL.VISIT" Value="BASELINE"/>
      <ItemData ItemOID="IT.QSSL.EPOCH" Value="SCREENING"/>
      <ItemData ItemOID="IT.QSSL.QSDTC" Value="2013-04-03"/>
      <ItemData ItemOID="IT.QSSL.QSDY" Value="1"/>
    </ItemGroupData>
    <ItemGroupData ItemGroupOID="IG.QSSL" data:ItemGroupDataSeq="96">
      <ItemData ItemOID="IT.QSSL.STUDYID" Value="CDISCPILOT01"/>
      <ItemData ItemOID="IT.QSSL.DOMAIN" Value="QS"/>
      <ItemData ItemOID="IT.QSSL.USUBJID" Value="CDISC016"/>
      <ItemData ItemOID="IT.QSSL.QSSEQ" Value="28"/>
      <ItemData ItemOID="IT.QSSL.QSTESTCD" Value="SWLS0101"/>
      <ItemData ItemOID="IT.QSSL.QSTEST" Value="SWLS01-My Life is Close to Ideal"/>
      <ItemData ItemOID="IT.QSSL.QSCAT" Value="SWLS"/>
      <ItemData ItemOID="IT.QSSL.QSORRES" Value="Agree"/>
      <ItemData ItemOID="IT.QSSL.QSSTRESC" Value="6"/>
      <ItemData ItemOID="IT.QSSL.QSSTRESN" Value="6"/>
      <ItemData ItemOID="IT.QSSL.VISITNUM" Value="9"/>
      <ItemData ItemOID="IT.QSSL.VISIT" Value="WEEK 12"/>
      <ItemData ItemOID="IT.QSSL.EPOCH" Value="TREATMENT"/>
      <ItemData ItemOID="IT.QSSL.QSDTC" Value="2013-06-01"/>
      <ItemData ItemOID="IT.QSSL.QSDY" Value="60"/>
    </ItemGroupData>
    <ItemGroupData ItemGroupOID="IG.QSSL" data:ItemGroupDataSeq="97">
      <ItemData ItemOID="IT.QSSL.STUDYID" Value="CDISCPILOT01"/>
      <ItemData ItemOID="IT.QSSL.DOMAIN" Value="QS"/>
      <ItemData ItemOID="IT.QSSL.USUBJID" Value="CDISC016"/>
      <ItemData ItemOID="IT.QSSL.QSSEQ" Value="29"/>
      <ItemData ItemOID="IT.QSSL.QSTESTCD" Value="SWLS0102"/>
      <ItemData ItemOID="IT.QSSL.QSTEST" Value="SWLS01-My Life Conditions are Excellent"/>
      <ItemData ItemOID="IT.QSSL.QSCAT" Value="SWLS"/>
      <ItemData ItemOID="IT.QSSL.QSORRES" Value="Agree"/>
      <ItemData ItemOID="IT.QSSL.QSSTRESC" Value="6"/>
      <ItemData ItemOID="IT.QSSL.QSSTRESN" Value="6"/>
      <ItemData ItemOID="IT.QSSL.VISITNUM" Value="9"/>
      <ItemData ItemOID="IT.QSSL.VISIT" Value="WEEK 12"/>
      <ItemData ItemOID="IT.QSSL.EPOCH" Value="TREATMENT"/>
      <ItemData ItemOID="IT.QSSL.QSDTC" Value="2013-06-01"/>
      <ItemData ItemOID="IT.QSSL.QSDY" Value="60"/>
    </ItemGroupData>
    <ItemGroupData ItemGroupOID="IG.QSSL" data:ItemGroupDataSeq="98">
      <ItemData ItemOID="IT.QSSL.STUDYID" Value="CDISCPILOT01"/>
      <ItemData ItemOID="IT.QSSL.DOMAIN" Value="QS"/>
      <ItemData ItemOID="IT.QSSL.USUBJID" Value="CDISC016"/>
      <ItemData ItemOID="IT.QSSL.QSSEQ" Value="30"/>
      <ItemData ItemOID="IT.QSSL.QSTESTCD" Value="SWLS0103"/>
      <ItemData ItemOID="IT.QSSL.QSTEST" Value="SWLS01-I Am Satisfied with My Life"/>
      <ItemData ItemOID="IT.QSSL.QSCAT" Value="SWLS"/>
      <ItemData ItemOID="IT.QSSL.QSORRES" Value="Slightly agree"/>
      <ItemData ItemOID="IT.QSSL.QSSTRESC" Value="5"/>
      <ItemData ItemOID="IT.QSSL.QSSTRESN" Value="5"/>
      <ItemData ItemOID="IT.QSSL.VISITNUM" Value="9"/>
      <ItemData ItemOID="IT.QSSL.VISIT" Value="WEEK 12"/>
      <ItemData ItemOID="IT.QSSL.EPOCH" Value="TREATMENT"/>
      <ItemData ItemOID="IT.QSSL.QSDTC" Value="2013-06-01"/>
      <ItemData ItemOID="IT.QSSL.QSDY" Value="60"/>
    </ItemGroupData>
    <ItemGroupData ItemGroupOID="IG.QSSL" data:ItemGroupDataSeq="99">
      <ItemData ItemOID="IT.QSSL.STUDYID" Value="CDISCPILOT01"/>
      <ItemData ItemOID="IT.QSSL.DOMAIN" Value="QS"/>
      <ItemData ItemOID="IT.QSSL.USUBJID" Value="CDISC016"/>
      <ItemData ItemOID="IT.QSSL.QSSEQ" Value="31"/>
      <ItemData ItemOID="IT.QSSL.QSTESTCD" Value="SWLS0104"/>
      <ItemData ItemOID="IT.QSSL.QSTEST" Value="SWLS01-Have Gotten Important Things"/>
      <ItemData ItemOID="IT.QSSL.QSCAT" Value="SWLS"/>
      <ItemData ItemOID="IT.QSSL.QSORRES" Value="Slightly agree"/>
      <ItemData ItemOID="IT.QSSL.QSSTRESC" Value="5"/>
      <ItemData ItemOID="IT.QSSL.QSSTRESN" Value="5"/>
      <ItemData ItemOID="IT.QSSL.VISITNUM" Value="9"/>
      <ItemData ItemOID="IT.QSSL.VISIT" Value="WEEK 12"/>
      <ItemData ItemOID="IT.QSSL.EPOCH" Value="TREATMENT"/>
      <ItemData ItemOID="IT.QSSL.QSDTC" Value="2013-06-01"/>
      <ItemData ItemOID="IT.QSSL.QSDY" Value="60"/>
    </ItemGroupData>
    <ItemGroupData ItemGroupOID="IG.QSSL" data:ItemGroupDataSeq="100">
      <ItemData ItemOID="IT.QSSL.STUDYID" Value="CDISCPILOT01"/>
      <ItemData ItemOID="IT.QSSL.DOMAIN" Value="QS"/>
      <ItemData ItemOID="IT.QSSL.USUBJID" Value="CDISC016"/>
      <ItemData ItemOID="IT.QSSL.QSSEQ" Value="32"/>
      <ItemData ItemOID="IT.QSSL.QSTESTCD" Value="SWLS0105"/>
      <ItemData ItemOID="IT.QSSL.QSTEST" Value="SWLS01-Live Life Over Change Nothing"/>
      <ItemData ItemOID="IT.QSSL.QSCAT" Value="SWLS"/>
      <ItemData ItemOID="IT.QSSL.QSORRES" Value="Agree"/>
      <ItemData ItemOID="IT.QSSL.QSSTRESC" Value="6"/>
      <ItemData ItemOID="IT.QSSL.QSSTRESN" Value="6"/>
      <ItemData ItemOID="IT.QSSL.VISITNUM" Value="9"/>
      <ItemData ItemOID="IT.QSSL.VISIT" Value="WEEK 12"/>
      <ItemData ItemOID="IT.QSSL.EPOCH" Value="TREATMENT"/>
      <ItemData ItemOID="IT.QSSL.QSDTC" Value="2013-06-01"/>
      <ItemData ItemOID="IT.QSSL.QSDY" Value="60"/>
    </ItemGroupData>
    <ItemGroupData ItemGroupOID="IG.QSSL" data:ItemGroupDataSeq="101">
      <ItemData ItemOID="IT.QSSL.STUDYID" Value="CDISCPILOT01"/>
      <ItemData ItemOID="IT.QSSL.DOMAIN" Value="QS"/>
      <ItemData ItemOID="IT.QSSL.USUBJID" Value="CDISC016"/>
      <ItemData ItemOID="IT.QSSL.QSSEQ" Value="44"/>
      <ItemData ItemOID="IT.QSSL.QSTESTCD" Value="SWLS0101"/>
      <ItemData ItemOID="IT.QSSL.QSTEST" Value="SWLS01-My Life is Close to Ideal"/>
      <ItemData ItemOID="IT.QSSL.QSCAT" Value="SWLS"/>
      <ItemData ItemOID="IT.QSSL.QSORRES" Value="Neither agree nor disagree"/>
      <ItemData ItemOID="IT.QSSL.QSSTRESC" Value="4"/>
      <ItemData ItemOID="IT.QSSL.QSSTRESN" Value="4"/>
      <ItemData ItemOID="IT.QSSL.VISITNUM" Value="201"/>
      <ItemData ItemOID="IT.QSSL.VISIT" Value="EARLY DISCONTINUATION RETRIEVAL"/>
      <ItemData ItemOID="IT.QSSL.EPOCH" Value="TREATMENT"/>
      <ItemData ItemOID="IT.QSSL.QSDTC" Value="2013-09-22"/>
      <ItemData ItemOID="IT.QSSL.QSDY" Value="173"/>
    </ItemGroupData>
    <ItemGroupData ItemGroupOID="IG.QSSL" data:ItemGroupDataSeq="102">
      <ItemData ItemOID="IT.QSSL.STUDYID" Value="CDISCPILOT01"/>
      <ItemData ItemOID="IT.QSSL.DOMAIN" Value="QS"/>
      <ItemData ItemOID="IT.QSSL.USUBJID" Value="CDISC016"/>
      <ItemData ItemOID="IT.QSSL.QSSEQ" Value="45"/>
      <ItemData ItemOID="IT.QSSL.QSTESTCD" Value="SWLS0102"/>
      <ItemData ItemOID="IT.QSSL.QSTEST" Value="SWLS01-My Life Conditions are Excellent"/>
      <ItemData ItemOID="IT.QSSL.QSCAT" Value="SWLS"/>
      <ItemData ItemOID="IT.QSSL.QSORRES" Value="Slightly agree"/>
      <ItemData ItemOID="IT.QSSL.QSSTRESC" Value="5"/>
      <ItemData ItemOID="IT.QSSL.QSSTRESN" Value="5"/>
      <ItemData ItemOID="IT.QSSL.VISITNUM" Value="201"/>
      <ItemData ItemOID="IT.QSSL.VISIT" Value="EARLY DISCONTINUATION RETRIEVAL"/>
      <ItemData ItemOID="IT.QSSL.EPOCH" Value="TREATMENT"/>
      <ItemData ItemOID="IT.QSSL.QSDTC" Value="2013-09-22"/>
      <ItemData ItemOID="IT.QSSL.QSDY" Value="173"/>
    </ItemGroupData>
    <ItemGroupData ItemGroupOID="IG.QSSL" data:ItemGroupDataSeq="103">
      <ItemData ItemOID="IT.QSSL.STUDYID" Value="CDISCPILOT01"/>
      <ItemData ItemOID="IT.QSSL.DOMAIN" Value="QS"/>
      <ItemData ItemOID="IT.QSSL.USUBJID" Value="CDISC016"/>
      <ItemData ItemOID="IT.QSSL.QSSEQ" Value="46"/>
      <ItemData ItemOID="IT.QSSL.QSTESTCD" Value="SWLS0103"/>
      <ItemData ItemOID="IT.QSSL.QSTEST" Value="SWLS01-I Am Satisfied with My Life"/>
      <ItemData ItemOID="IT.QSSL.QSCAT" Value="SWLS"/>
      <ItemData ItemOID="IT.QSSL.QSORRES" Value="Slightly disagree"/>
      <ItemData ItemOID="IT.QSSL.QSSTRESC" Value="3"/>
      <ItemData ItemOID="IT.QSSL.QSSTRESN" Value="3"/>
      <ItemData ItemOID="IT.QSSL.VISITNUM" Value="201"/>
      <ItemData ItemOID="IT.QSSL.VISIT" Value="EARLY DISCONTINUATION RETRIEVAL"/>
      <ItemData ItemOID="IT.QSSL.EPOCH" Value="TREATMENT"/>
      <ItemData ItemOID="IT.QSSL.QSDTC" Value="2013-09-22"/>
      <ItemData ItemOID="IT.QSSL.QSDY" Value="173"/>
    </ItemGroupData>
    <ItemGroupData ItemGroupOID="IG.QSSL" data:ItemGroupDataSeq="104">
      <ItemData ItemOID="IT.QSSL.STUDYID" Value="CDISCPILOT01"/>
      <ItemData ItemOID="IT.QSSL.DOMAIN" Value="QS"/>
      <ItemData ItemOID="IT.QSSL.USUBJID" Value="CDISC016"/>
      <ItemData ItemOID="IT.QSSL.QSSEQ" Value="47"/>
      <ItemData ItemOID="IT.QSSL.QSTESTCD" Value="SWLS0104"/>
      <ItemData ItemOID="IT.QSSL.QSTEST" Value="SWLS01-Have Gotten Important Things"/>
      <ItemData ItemOID="IT.QSSL.QSCAT" Value="SWLS"/>
      <ItemData ItemOID="IT.QSSL.QSORRES" Value="Agree"/>
      <ItemData ItemOID="IT.QSSL.QSSTRESC" Value="6"/>
      <ItemData ItemOID="IT.QSSL.QSSTRESN" Value="6"/>
      <ItemData ItemOID="IT.QSSL.VISITNUM" Value="201"/>
      <ItemData ItemOID="IT.QSSL.VISIT" Value="EARLY DISCONTINUATION RETRIEVAL"/>
      <ItemData ItemOID="IT.QSSL.EPOCH" Value="TREATMENT"/>
      <ItemData ItemOID="IT.QSSL.QSDTC" Value="2013-09-22"/>
      <ItemData ItemOID="IT.QSSL.QSDY" Value="173"/>
    </ItemGroupData>
    <ItemGroupData ItemGroupOID="IG.QSSL" data:ItemGroupDataSeq="105">
      <ItemData ItemOID="IT.QSSL.STUDYID" Value="CDISCPILOT01"/>
      <ItemData ItemOID="IT.QSSL.DOMAIN" Value="QS"/>
      <ItemData ItemOID="IT.QSSL.USUBJID" Value="CDISC016"/>
      <ItemData ItemOID="IT.QSSL.QSSEQ" Value="48"/>
      <ItemData ItemOID="IT.QSSL.QSTESTCD" Value="SWLS0105"/>
      <ItemData ItemOID="IT.QSSL.QSTEST" Value="SWLS01-Live Life Over Change Nothing"/>
      <ItemData ItemOID="IT.QSSL.QSCAT" Value="SWLS"/>
      <ItemData ItemOID="IT.QSSL.QSORRES" Value="Neither agree nor disagree"/>
      <ItemData ItemOID="IT.QSSL.QSSTRESC" Value="4"/>
      <ItemData ItemOID="IT.QSSL.QSSTRESN" Value="4"/>
      <ItemData ItemOID="IT.QSSL.VISITNUM" Value="201"/>
      <ItemData ItemOID="IT.QSSL.VISIT" Value="EARLY DISCONTINUATION RETRIEVAL"/>
      <ItemData ItemOID="IT.QSSL.EPOCH" Value="TREATMENT"/>
      <ItemData ItemOID="IT.QSSL.QSDTC" Value="2013-09-22"/>
      <ItemData ItemOID="IT.QSSL.QSDY" Value="173"/>
    </ItemGroupData>
    <ItemGroupData ItemGroupOID="IG.QSSL" data:ItemGroupDataSeq="106">
      <ItemData ItemOID="IT.QSSL.STUDYID" Value="CDISCPILOT01"/>
      <ItemData ItemOID="IT.QSSL.DOMAIN" Value="QS"/>
      <ItemData ItemOID="IT.QSSL.USUBJID" Value="CDISC017"/>
      <ItemData ItemOID="IT.QSSL.QSSEQ" Value="12"/>
      <ItemData ItemOID="IT.QSSL.QSTESTCD" Value="SWLS0101"/>
      <ItemData ItemOID="IT.QSSL.QSTEST" Value="SWLS01-My Life is Close to Ideal"/>
      <ItemData ItemOID="IT.QSSL.QSCAT" Value="SWLS"/>
      <ItemData ItemOID="IT.QSSL.QSORRES" Value="Slightly disagree"/>
      <ItemData ItemOID="IT.QSSL.QSSTRESC" Value="3"/>
      <ItemData ItemOID="IT.QSSL.QSSTRESN" Value="3"/>
      <ItemData ItemOID="IT.QSSL.QSLOBXFL" Value="Y"/>
      <ItemData ItemOID="IT.QSSL.VISITNUM" Value="3"/>
      <ItemData ItemOID="IT.QSSL.VISIT" Value="BASELINE"/>
      <ItemData ItemOID="IT.QSSL.EPOCH" Value="SCREENING"/>
      <ItemData ItemOID="IT.QSSL.QSDTC" Value="2013-09-21"/>
      <ItemData ItemOID="IT.QSSL.QSDY" Value="1"/>
    </ItemGroupData>
    <ItemGroupData ItemGroupOID="IG.QSSL" data:ItemGroupDataSeq="107">
      <ItemData ItemOID="IT.QSSL.STUDYID" Value="CDISCPILOT01"/>
      <ItemData ItemOID="IT.QSSL.DOMAIN" Value="QS"/>
      <ItemData ItemOID="IT.QSSL.USUBJID" Value="CDISC017"/>
      <ItemData ItemOID="IT.QSSL.QSSEQ" Value="13"/>
      <ItemData ItemOID="IT.QSSL.QSTESTCD" Value="SWLS0102"/>
      <ItemData ItemOID="IT.QSSL.QSTEST" Value="SWLS01-My Life Conditions are Excellent"/>
      <ItemData ItemOID="IT.QSSL.QSCAT" Value="SWLS"/>
      <ItemData ItemOID="IT.QSSL.QSORRES" Value="Neither agree nor disagree"/>
      <ItemData ItemOID="IT.QSSL.QSSTRESC" Value="4"/>
      <ItemData ItemOID="IT.QSSL.QSSTRESN" Value="4"/>
      <ItemData ItemOID="IT.QSSL.QSLOBXFL" Value="Y"/>
      <ItemData ItemOID="IT.QSSL.VISITNUM" Value="3"/>
      <ItemData ItemOID="IT.QSSL.VISIT" Value="BASELINE"/>
      <ItemData ItemOID="IT.QSSL.EPOCH" Value="SCREENING"/>
      <ItemData ItemOID="IT.QSSL.QSDTC" Value="2013-09-21"/>
      <ItemData ItemOID="IT.QSSL.QSDY" Value="1"/>
    </ItemGroupData>
    <ItemGroupData ItemGroupOID="IG.QSSL" data:ItemGroupDataSeq="108">
      <ItemData ItemOID="IT.QSSL.STUDYID" Value="CDISCPILOT01"/>
      <ItemData ItemOID="IT.QSSL.DOMAIN" Value="QS"/>
      <ItemData ItemOID="IT.QSSL.USUBJID" Value="CDISC017"/>
      <ItemData ItemOID="IT.QSSL.QSSEQ" Value="14"/>
      <ItemData ItemOID="IT.QSSL.QSTESTCD" Value="SWLS0103"/>
      <ItemData ItemOID="IT.QSSL.QSTEST" Value="SWLS01-I Am Satisfied with My Life"/>
      <ItemData ItemOID="IT.QSSL.QSCAT" Value="SWLS"/>
      <ItemData ItemOID="IT.QSSL.QSORRES" Value="Slightly disagree"/>
      <ItemData ItemOID="IT.QSSL.QSSTRESC" Value="3"/>
      <ItemData ItemOID="IT.QSSL.QSSTRESN" Value="3"/>
      <ItemData ItemOID="IT.QSSL.QSLOBXFL" Value="Y"/>
      <ItemData ItemOID="IT.QSSL.VISITNUM" Value="3"/>
      <ItemData ItemOID="IT.QSSL.VISIT" Value="BASELINE"/>
      <ItemData ItemOID="IT.QSSL.EPOCH" Value="SCREENING"/>
      <ItemData ItemOID="IT.QSSL.QSDTC" Value="2013-09-21"/>
      <ItemData ItemOID="IT.QSSL.QSDY" Value="1"/>
    </ItemGroupData>
    <ItemGroupData ItemGroupOID="IG.QSSL" data:ItemGroupDataSeq="109">
      <ItemData ItemOID="IT.QSSL.STUDYID" Value="CDISCPILOT01"/>
      <ItemData ItemOID="IT.QSSL.DOMAIN" Value="QS"/>
      <ItemData ItemOID="IT.QSSL.USUBJID" Value="CDISC017"/>
      <ItemData ItemOID="IT.QSSL.QSSEQ" Value="15"/>
      <ItemData ItemOID="IT.QSSL.QSTESTCD" Value="SWLS0104"/>
      <ItemData ItemOID="IT.QSSL.QSTEST" Value="SWLS01-Have Gotten Important Things"/>
      <ItemData ItemOID="IT.QSSL.QSCAT" Value="SWLS"/>
      <ItemData ItemOID="IT.QSSL.QSORRES" Value="Slightly disagree"/>
      <ItemData ItemOID="IT.QSSL.QSSTRESC" Value="3"/>
      <ItemData ItemOID="IT.QSSL.QSSTRESN" Value="3"/>
      <ItemData ItemOID="IT.QSSL.QSLOBXFL" Value="Y"/>
      <ItemData ItemOID="IT.QSSL.VISITNUM" Value="3"/>
      <ItemData ItemOID="IT.QSSL.VISIT" Value="BASELINE"/>
      <ItemData ItemOID="IT.QSSL.EPOCH" Value="SCREENING"/>
      <ItemData ItemOID="IT.QSSL.QSDTC" Value="2013-09-21"/>
      <ItemData ItemOID="IT.QSSL.QSDY" Value="1"/>
    </ItemGroupData>
    <ItemGroupData ItemGroupOID="IG.QSSL" data:ItemGroupDataSeq="110">
      <ItemData ItemOID="IT.QSSL.STUDYID" Value="CDISCPILOT01"/>
      <ItemData ItemOID="IT.QSSL.DOMAIN" Value="QS"/>
      <ItemData ItemOID="IT.QSSL.USUBJID" Value="CDISC017"/>
      <ItemData ItemOID="IT.QSSL.QSSEQ" Value="16"/>
      <ItemData ItemOID="IT.QSSL.QSTESTCD" Value="SWLS0105"/>
      <ItemData ItemOID="IT.QSSL.QSTEST" Value="SWLS01-Live Life Over Change Nothing"/>
      <ItemData ItemOID="IT.QSSL.QSCAT" Value="SWLS"/>
      <ItemData ItemOID="IT.QSSL.QSORRES" Value="Slightly disagree"/>
      <ItemData ItemOID="IT.QSSL.QSSTRESC" Value="3"/>
      <ItemData ItemOID="IT.QSSL.QSSTRESN" Value="3"/>
      <ItemData ItemOID="IT.QSSL.QSLOBXFL" Value="Y"/>
      <ItemData ItemOID="IT.QSSL.VISITNUM" Value="3"/>
      <ItemData ItemOID="IT.QSSL.VISIT" Value="BASELINE"/>
      <ItemData ItemOID="IT.QSSL.EPOCH" Value="SCREENING"/>
      <ItemData ItemOID="IT.QSSL.QSDTC" Value="2013-09-21"/>
      <ItemData ItemOID="IT.QSSL.QSDY" Value="1"/>
    </ItemGroupData>
    <ItemGroupData ItemGroupOID="IG.QSSL" data:ItemGroupDataSeq="111">
      <ItemData ItemOID="IT.QSSL.STUDYID" Value="CDISCPILOT01"/>
      <ItemData ItemOID="IT.QSSL.DOMAIN" Value="QS"/>
      <ItemData ItemOID="IT.QSSL.USUBJID" Value="CDISC017"/>
      <ItemData ItemOID="IT.QSSL.QSSEQ" Value="28"/>
      <ItemData ItemOID="IT.QSSL.QSTESTCD" Value="SWLS0101"/>
      <ItemData ItemOID="IT.QSSL.QSTEST" Value="SWLS01-My Life is Close to Ideal"/>
      <ItemData ItemOID="IT.QSSL.QSCAT" Value="SWLS"/>
      <ItemData ItemOID="IT.QSSL.QSORRES" Value="Slightly disagree"/>
      <ItemData ItemOID="IT.QSSL.QSSTRESC" Value="3"/>
      <ItemData ItemOID="IT.QSSL.QSSTRESN" Value="3"/>
      <ItemData ItemOID="IT.QSSL.VISITNUM" Value="10"/>
      <ItemData ItemOID="IT.QSSL.VISIT" Value="WEEK 16"/>
      <ItemData ItemOID="IT.QSSL.EPOCH" Value="TREATMENT"/>
      <ItemData ItemOID="IT.QSSL.QSDTC" Value="2014-01-11"/>
      <ItemData ItemOID="IT.QSSL.QSDY" Value="113"/>
    </ItemGroupData>
    <ItemGroupData ItemGroupOID="IG.QSSL" data:ItemGroupDataSeq="112">
      <ItemData ItemOID="IT.QSSL.STUDYID" Value="CDISCPILOT01"/>
      <ItemData ItemOID="IT.QSSL.DOMAIN" Value="QS"/>
      <ItemData ItemOID="IT.QSSL.USUBJID" Value="CDISC017"/>
      <ItemData ItemOID="IT.QSSL.QSSEQ" Value="29"/>
      <ItemData ItemOID="IT.QSSL.QSTESTCD" Value="SWLS0102"/>
      <ItemData ItemOID="IT.QSSL.QSTEST" Value="SWLS01-My Life Conditions are Excellent"/>
      <ItemData ItemOID="IT.QSSL.QSCAT" Value="SWLS"/>
      <ItemData ItemOID="IT.QSSL.QSORRES" Value="Neither agree nor disagree"/>
      <ItemData ItemOID="IT.QSSL.QSSTRESC" Value="4"/>
      <ItemData ItemOID="IT.QSSL.QSSTRESN" Value="4"/>
      <ItemData ItemOID="IT.QSSL.VISITNUM" Value="10"/>
      <ItemData ItemOID="IT.QSSL.VISIT" Value="WEEK 16"/>
      <ItemData ItemOID="IT.QSSL.EPOCH" Value="TREATMENT"/>
      <ItemData ItemOID="IT.QSSL.QSDTC" Value="2014-01-11"/>
      <ItemData ItemOID="IT.QSSL.QSDY" Value="113"/>
    </ItemGroupData>
    <ItemGroupData ItemGroupOID="IG.QSSL" data:ItemGroupDataSeq="113">
      <ItemData ItemOID="IT.QSSL.STUDYID" Value="CDISCPILOT01"/>
      <ItemData ItemOID="IT.QSSL.DOMAIN" Value="QS"/>
      <ItemData ItemOID="IT.QSSL.USUBJID" Value="CDISC017"/>
      <ItemData ItemOID="IT.QSSL.QSSEQ" Value="30"/>
      <ItemData ItemOID="IT.QSSL.QSTESTCD" Value="SWLS0103"/>
      <ItemData ItemOID="IT.QSSL.QSTEST" Value="SWLS01-I Am Satisfied with My Life"/>
      <ItemData ItemOID="IT.QSSL.QSCAT" Value="SWLS"/>
      <ItemData ItemOID="IT.QSSL.QSORRES" Value="Slightly disagree"/>
      <ItemData ItemOID="IT.QSSL.QSSTRESC" Value="3"/>
      <ItemData ItemOID="IT.QSSL.QSSTRESN" Value="3"/>
      <ItemData ItemOID="IT.QSSL.VISITNUM" Value="10"/>
      <ItemData ItemOID="IT.QSSL.VISIT" Value="WEEK 16"/>
      <ItemData ItemOID="IT.QSSL.EPOCH" Value="TREATMENT"/>
      <ItemData ItemOID="IT.QSSL.QSDTC" Value="2014-01-11"/>
      <ItemData ItemOID="IT.QSSL.QSDY" Value="113"/>
    </ItemGroupData>
    <ItemGroupData ItemGroupOID="IG.QSSL" data:ItemGroupDataSeq="114">
      <ItemData ItemOID="IT.QSSL.STUDYID" Value="CDISCPILOT01"/>
      <ItemData ItemOID="IT.QSSL.DOMAIN" Value="QS"/>
      <ItemData ItemOID="IT.QSSL.USUBJID" Value="CDISC017"/>
      <ItemData ItemOID="IT.QSSL.QSSEQ" Value="31"/>
      <ItemData ItemOID="IT.QSSL.QSTESTCD" Value="SWLS0104"/>
      <ItemData ItemOID="IT.QSSL.QSTEST" Value="SWLS01-Have Gotten Important Things"/>
      <ItemData ItemOID="IT.QSSL.QSCAT" Value="SWLS"/>
      <ItemData ItemOID="IT.QSSL.QSORRES" Value="Slightly disagree"/>
      <ItemData ItemOID="IT.QSSL.QSSTRESC" Value="3"/>
      <ItemData ItemOID="IT.QSSL.QSSTRESN" Value="3"/>
      <ItemData ItemOID="IT.QSSL.VISITNUM" Value="10"/>
      <ItemData ItemOID="IT.QSSL.VISIT" Value="WEEK 16"/>
      <ItemData ItemOID="IT.QSSL.EPOCH" Value="TREATMENT"/>
      <ItemData ItemOID="IT.QSSL.QSDTC" Value="2014-01-11"/>
      <ItemData ItemOID="IT.QSSL.QSDY" Value="113"/>
    </ItemGroupData>
    <ItemGroupData ItemGroupOID="IG.QSSL" data:ItemGroupDataSeq="115">
      <ItemData ItemOID="IT.QSSL.STUDYID" Value="CDISCPILOT01"/>
      <ItemData ItemOID="IT.QSSL.DOMAIN" Value="QS"/>
      <ItemData ItemOID="IT.QSSL.USUBJID" Value="CDISC017"/>
      <ItemData ItemOID="IT.QSSL.QSSEQ" Value="32"/>
      <ItemData ItemOID="IT.QSSL.QSTESTCD" Value="SWLS0105"/>
      <ItemData ItemOID="IT.QSSL.QSTEST" Value="SWLS01-Live Life Over Change Nothing"/>
      <ItemData ItemOID="IT.QSSL.QSCAT" Value="SWLS"/>
      <ItemData ItemOID="IT.QSSL.QSORRES" Value="Slightly disagree"/>
      <ItemData ItemOID="IT.QSSL.QSSTRESC" Value="3"/>
      <ItemData ItemOID="IT.QSSL.QSSTRESN" Value="3"/>
      <ItemData ItemOID="IT.QSSL.VISITNUM" Value="10"/>
      <ItemData ItemOID="IT.QSSL.VISIT" Value="WEEK 16"/>
      <ItemData ItemOID="IT.QSSL.EPOCH" Value="TREATMENT"/>
      <ItemData ItemOID="IT.QSSL.QSDTC" Value="2014-01-11"/>
      <ItemData ItemOID="IT.QSSL.QSDY" Value="113"/>
    </ItemGroupData>
    <ItemGroupData ItemGroupOID="IG.QSSL" data:ItemGroupDataSeq="116">
      <ItemData ItemOID="IT.QSSL.STUDYID" Value="CDISCPILOT01"/>
      <ItemData ItemOID="IT.QSSL.DOMAIN" Value="QS"/>
      <ItemData ItemOID="IT.QSSL.USUBJID" Value="CDISC017"/>
      <ItemData ItemOID="IT.QSSL.QSSEQ" Value="44"/>
      <ItemData ItemOID="IT.QSSL.QSTESTCD" Value="SWLS0101"/>
      <ItemData ItemOID="IT.QSSL.QSTEST" Value="SWLS01-My Life is Close to Ideal"/>
      <ItemData ItemOID="IT.QSSL.QSCAT" Value="SWLS"/>
      <ItemData ItemOID="IT.QSSL.QSORRES" Value="Slightly disagree"/>
      <ItemData ItemOID="IT.QSSL.QSSTRESC" Value="3"/>
      <ItemData ItemOID="IT.QSSL.QSSTRESN" Value="3"/>
      <ItemData ItemOID="IT.QSSL.VISITNUM" Value="11"/>
      <ItemData ItemOID="IT.QSSL.VISIT" Value="WEEK 20"/>
      <ItemData ItemOID="IT.QSSL.EPOCH" Value="TREATMENT"/>
      <ItemData ItemOID="IT.QSSL.QSDTC" Value="2014-02-08"/>
      <ItemData ItemOID="IT.QSSL.QSDY" Value="141"/>
    </ItemGroupData>
    <ItemGroupData ItemGroupOID="IG.QSSL" data:ItemGroupDataSeq="117">
      <ItemData ItemOID="IT.QSSL.STUDYID" Value="CDISCPILOT01"/>
      <ItemData ItemOID="IT.QSSL.DOMAIN" Value="QS"/>
      <ItemData ItemOID="IT.QSSL.USUBJID" Value="CDISC017"/>
      <ItemData ItemOID="IT.QSSL.QSSEQ" Value="45"/>
      <ItemData ItemOID="IT.QSSL.QSTESTCD" Value="SWLS0102"/>
      <ItemData ItemOID="IT.QSSL.QSTEST" Value="SWLS01-My Life Conditions are Excellent"/>
      <ItemData ItemOID="IT.QSSL.QSCAT" Value="SWLS"/>
      <ItemData ItemOID="IT.QSSL.QSORRES" Value="Neither agree nor disagree"/>
      <ItemData ItemOID="IT.QSSL.QSSTRESC" Value="4"/>
      <ItemData ItemOID="IT.QSSL.QSSTRESN" Value="4"/>
      <ItemData ItemOID="IT.QSSL.VISITNUM" Value="11"/>
      <ItemData ItemOID="IT.QSSL.VISIT" Value="WEEK 20"/>
      <ItemData ItemOID="IT.QSSL.EPOCH" Value="TREATMENT"/>
      <ItemData ItemOID="IT.QSSL.QSDTC" Value="2014-02-08"/>
      <ItemData ItemOID="IT.QSSL.QSDY" Value="141"/>
    </ItemGroupData>
    <ItemGroupData ItemGroupOID="IG.QSSL" data:ItemGroupDataSeq="118">
      <ItemData ItemOID="IT.QSSL.STUDYID" Value="CDISCPILOT01"/>
      <ItemData ItemOID="IT.QSSL.DOMAIN" Value="QS"/>
      <ItemData ItemOID="IT.QSSL.USUBJID" Value="CDISC017"/>
      <ItemData ItemOID="IT.QSSL.QSSEQ" Value="46"/>
      <ItemData ItemOID="IT.QSSL.QSTESTCD" Value="SWLS0103"/>
      <ItemData ItemOID="IT.QSSL.QSTEST" Value="SWLS01-I Am Satisfied with My Life"/>
      <ItemData ItemOID="IT.QSSL.QSCAT" Value="SWLS"/>
      <ItemData ItemOID="IT.QSSL.QSORRES" Value="Neither agree nor disagree"/>
      <ItemData ItemOID="IT.QSSL.QSSTRESC" Value="4"/>
      <ItemData ItemOID="IT.QSSL.QSSTRESN" Value="4"/>
      <ItemData ItemOID="IT.QSSL.VISITNUM" Value="11"/>
      <ItemData ItemOID="IT.QSSL.VISIT" Value="WEEK 20"/>
      <ItemData ItemOID="IT.QSSL.EPOCH" Value="TREATMENT"/>
      <ItemData ItemOID="IT.QSSL.QSDTC" Value="2014-02-08"/>
      <ItemData ItemOID="IT.QSSL.QSDY" Value="141"/>
    </ItemGroupData>
    <ItemGroupData ItemGroupOID="IG.QSSL" data:ItemGroupDataSeq="119">
      <ItemData ItemOID="IT.QSSL.STUDYID" Value="CDISCPILOT01"/>
      <ItemData ItemOID="IT.QSSL.DOMAIN" Value="QS"/>
      <ItemData ItemOID="IT.QSSL.USUBJID" Value="CDISC017"/>
      <ItemData ItemOID="IT.QSSL.QSSEQ" Value="47"/>
      <ItemData ItemOID="IT.QSSL.QSTESTCD" Value="SWLS0104"/>
      <ItemData ItemOID="IT.QSSL.QSTEST" Value="SWLS01-Have Gotten Important Things"/>
      <ItemData ItemOID="IT.QSSL.QSCAT" Value="SWLS"/>
      <ItemData ItemOID="IT.QSSL.QSORRES" Value="Slightly disagree"/>
      <ItemData ItemOID="IT.QSSL.QSSTRESC" Value="3"/>
      <ItemData ItemOID="IT.QSSL.QSSTRESN" Value="3"/>
      <ItemData ItemOID="IT.QSSL.VISITNUM" Value="11"/>
      <ItemData ItemOID="IT.QSSL.VISIT" Value="WEEK 20"/>
      <ItemData ItemOID="IT.QSSL.EPOCH" Value="TREATMENT"/>
      <ItemData ItemOID="IT.QSSL.QSDTC" Value="2014-02-08"/>
      <ItemData ItemOID="IT.QSSL.QSDY" Value="141"/>
    </ItemGroupData>
    <ItemGroupData ItemGroupOID="IG.QSSL" data:ItemGroupDataSeq="120">
      <ItemData ItemOID="IT.QSSL.STUDYID" Value="CDISCPILOT01"/>
      <ItemData ItemOID="IT.QSSL.DOMAIN" Value="QS"/>
      <ItemData ItemOID="IT.QSSL.USUBJID" Value="CDISC017"/>
      <ItemData ItemOID="IT.QSSL.QSSEQ" Value="48"/>
      <ItemData ItemOID="IT.QSSL.QSTESTCD" Value="SWLS0105"/>
      <ItemData ItemOID="IT.QSSL.QSTEST" Value="SWLS01-Live Life Over Change Nothing"/>
      <ItemData ItemOID="IT.QSSL.QSCAT" Value="SWLS"/>
      <ItemData ItemOID="IT.QSSL.QSORRES" Value="Slightly disagree"/>
      <ItemData ItemOID="IT.QSSL.QSSTRESC" Value="3"/>
      <ItemData ItemOID="IT.QSSL.QSSTRESN" Value="3"/>
      <ItemData ItemOID="IT.QSSL.VISITNUM" Value="11"/>
      <ItemData ItemOID="IT.QSSL.VISIT" Value="WEEK 20"/>
      <ItemData ItemOID="IT.QSSL.EPOCH" Value="TREATMENT"/>
      <ItemData ItemOID="IT.QSSL.QSDTC" Value="2014-02-08"/>
      <ItemData ItemOID="IT.QSSL.QSDY" Value="141"/>
    </ItemGroupData>
    <ItemGroupData ItemGroupOID="IG.QSSL" data:ItemGroupDataSeq="121">
      <ItemData ItemOID="IT.QSSL.STUDYID" Value="CDISCPILOT01"/>
      <ItemData ItemOID="IT.QSSL.DOMAIN" Value="QS"/>
      <ItemData ItemOID="IT.QSSL.USUBJID" Value="CDISC017"/>
      <ItemData ItemOID="IT.QSSL.QSSEQ" Value="60"/>
      <ItemData ItemOID="IT.QSSL.QSTESTCD" Value="SWLS0101"/>
      <ItemData ItemOID="IT.QSSL.QSTEST" Value="SWLS01-My Life is Close to Ideal"/>
      <ItemData ItemOID="IT.QSSL.QSCAT" Value="SWLS"/>
      <ItemData ItemOID="IT.QSSL.QSORRES" Value="Slightly disagree"/>
      <ItemData ItemOID="IT.QSSL.QSSTRESC" Value="3"/>
      <ItemData ItemOID="IT.QSSL.QSSTRESN" Value="3"/>
      <ItemData ItemOID="IT.QSSL.VISITNUM" Value="201"/>
      <ItemData ItemOID="IT.QSSL.VISIT" Value="EARLY DISCONTINUATION RETRIEVAL"/>
      <ItemData ItemOID="IT.QSSL.EPOCH" Value="TREATMENT"/>
      <ItemData ItemOID="IT.QSSL.QSDTC" Value="2014-03-08"/>
      <ItemData ItemOID="IT.QSSL.QSDY" Value="169"/>
    </ItemGroupData>
    <ItemGroupData ItemGroupOID="IG.QSSL" data:ItemGroupDataSeq="122">
      <ItemData ItemOID="IT.QSSL.STUDYID" Value="CDISCPILOT01"/>
      <ItemData ItemOID="IT.QSSL.DOMAIN" Value="QS"/>
      <ItemData ItemOID="IT.QSSL.USUBJID" Value="CDISC017"/>
      <ItemData ItemOID="IT.QSSL.QSSEQ" Value="61"/>
      <ItemData ItemOID="IT.QSSL.QSTESTCD" Value="SWLS0102"/>
      <ItemData ItemOID="IT.QSSL.QSTEST" Value="SWLS01-My Life Conditions are Excellent"/>
      <ItemData ItemOID="IT.QSSL.QSCAT" Value="SWLS"/>
      <ItemData ItemOID="IT.QSSL.QSORRES" Value="Neither agree nor disagree"/>
      <ItemData ItemOID="IT.QSSL.QSSTRESC" Value="4"/>
      <ItemData ItemOID="IT.QSSL.QSSTRESN" Value="4"/>
      <ItemData ItemOID="IT.QSSL.VISITNUM" Value="201"/>
      <ItemData ItemOID="IT.QSSL.VISIT" Value="EARLY DISCONTINUATION RETRIEVAL"/>
      <ItemData ItemOID="IT.QSSL.EPOCH" Value="TREATMENT"/>
      <ItemData ItemOID="IT.QSSL.QSDTC" Value="2014-03-08"/>
      <ItemData ItemOID="IT.QSSL.QSDY" Value="169"/>
    </ItemGroupData>
    <ItemGroupData ItemGroupOID="IG.QSSL" data:ItemGroupDataSeq="123">
      <ItemData ItemOID="IT.QSSL.STUDYID" Value="CDISCPILOT01"/>
      <ItemData ItemOID="IT.QSSL.DOMAIN" Value="QS"/>
      <ItemData ItemOID="IT.QSSL.USUBJID" Value="CDISC017"/>
      <ItemData ItemOID="IT.QSSL.QSSEQ" Value="62"/>
      <ItemData ItemOID="IT.QSSL.QSTESTCD" Value="SWLS0103"/>
      <ItemData ItemOID="IT.QSSL.QSTEST" Value="SWLS01-I Am Satisfied with My Life"/>
      <ItemData ItemOID="IT.QSSL.QSCAT" Value="SWLS"/>
      <ItemData ItemOID="IT.QSSL.QSORRES" Value="Neither agree nor disagree"/>
      <ItemData ItemOID="IT.QSSL.QSSTRESC" Value="4"/>
      <ItemData ItemOID="IT.QSSL.QSSTRESN" Value="4"/>
      <ItemData ItemOID="IT.QSSL.VISITNUM" Value="201"/>
      <ItemData ItemOID="IT.QSSL.VISIT" Value="EARLY DISCONTINUATION RETRIEVAL"/>
      <ItemData ItemOID="IT.QSSL.EPOCH" Value="TREATMENT"/>
      <ItemData ItemOID="IT.QSSL.QSDTC" Value="2014-03-08"/>
      <ItemData ItemOID="IT.QSSL.QSDY" Value="169"/>
    </ItemGroupData>
    <ItemGroupData ItemGroupOID="IG.QSSL" data:ItemGroupDataSeq="124">
      <ItemData ItemOID="IT.QSSL.STUDYID" Value="CDISCPILOT01"/>
      <ItemData ItemOID="IT.QSSL.DOMAIN" Value="QS"/>
      <ItemData ItemOID="IT.QSSL.USUBJID" Value="CDISC017"/>
      <ItemData ItemOID="IT.QSSL.QSSEQ" Value="63"/>
      <ItemData ItemOID="IT.QSSL.QSTESTCD" Value="SWLS0104"/>
      <ItemData ItemOID="IT.QSSL.QSTEST" Value="SWLS01-Have Gotten Important Things"/>
      <ItemData ItemOID="IT.QSSL.QSCAT" Value="SWLS"/>
      <ItemData ItemOID="IT.QSSL.QSORRES" Value="Slightly disagree"/>
      <ItemData ItemOID="IT.QSSL.QSSTRESC" Value="3"/>
      <ItemData ItemOID="IT.QSSL.QSSTRESN" Value="3"/>
      <ItemData ItemOID="IT.QSSL.VISITNUM" Value="201"/>
      <ItemData ItemOID="IT.QSSL.VISIT" Value="EARLY DISCONTINUATION RETRIEVAL"/>
      <ItemData ItemOID="IT.QSSL.EPOCH" Value="TREATMENT"/>
      <ItemData ItemOID="IT.QSSL.QSDTC" Value="2014-03-08"/>
      <ItemData ItemOID="IT.QSSL.QSDY" Value="169"/>
    </ItemGroupData>
    <ItemGroupData ItemGroupOID="IG.QSSL" data:ItemGroupDataSeq="125">
      <ItemData ItemOID="IT.QSSL.STUDYID" Value="CDISCPILOT01"/>
      <ItemData ItemOID="IT.QSSL.DOMAIN" Value="QS"/>
      <ItemData ItemOID="IT.QSSL.USUBJID" Value="CDISC017"/>
      <ItemData ItemOID="IT.QSSL.QSSEQ" Value="64"/>
      <ItemData ItemOID="IT.QSSL.QSTESTCD" Value="SWLS0105"/>
      <ItemData ItemOID="IT.QSSL.QSTEST" Value="SWLS01-Live Life Over Change Nothing"/>
      <ItemData ItemOID="IT.QSSL.QSCAT" Value="SWLS"/>
      <ItemData ItemOID="IT.QSSL.QSORRES" Value="Slightly disagree"/>
      <ItemData ItemOID="IT.QSSL.QSSTRESC" Value="3"/>
      <ItemData ItemOID="IT.QSSL.QSSTRESN" Value="3"/>
      <ItemData ItemOID="IT.QSSL.VISITNUM" Value="201"/>
      <ItemData ItemOID="IT.QSSL.VISIT" Value="EARLY DISCONTINUATION RETRIEVAL"/>
      <ItemData ItemOID="IT.QSSL.EPOCH" Value="TREATMENT"/>
      <ItemData ItemOID="IT.QSSL.QSDTC" Value="2014-03-08"/>
      <ItemData ItemOID="IT.QSSL.QSDY" Value="169"/>
    </ItemGroupData>
    <ItemGroupData ItemGroupOID="IG.QSSL" data:ItemGroupDataSeq="126">
      <ItemData ItemOID="IT.QSSL.STUDYID" Value="CDISCPILOT01"/>
      <ItemData ItemOID="IT.QSSL.DOMAIN" Value="QS"/>
      <ItemData ItemOID="IT.QSSL.USUBJID" Value="CDISC018"/>
      <ItemData ItemOID="IT.QSSL.QSSEQ" Value="12"/>
      <ItemData ItemOID="IT.QSSL.QSTESTCD" Value="SWLS0101"/>
      <ItemData ItemOID="IT.QSSL.QSTEST" Value="SWLS01-My Life is Close to Ideal"/>
      <ItemData ItemOID="IT.QSSL.QSCAT" Value="SWLS"/>
      <ItemData ItemOID="IT.QSSL.QSORRES" Value="Neither agree nor disagree"/>
      <ItemData ItemOID="IT.QSSL.QSSTRESC" Value="4"/>
      <ItemData ItemOID="IT.QSSL.QSSTRESN" Value="4"/>
      <ItemData ItemOID="IT.QSSL.QSLOBXFL" Value="Y"/>
      <ItemData ItemOID="IT.QSSL.VISITNUM" Value="3"/>
      <ItemData ItemOID="IT.QSSL.VISIT" Value="BASELINE"/>
      <ItemData ItemOID="IT.QSSL.EPOCH" Value="SCREENING"/>
      <ItemData ItemOID="IT.QSSL.QSDTC" Value="2012-12-17"/>
      <ItemData ItemOID="IT.QSSL.QSDY" Value="1"/>
    </ItemGroupData>
    <ItemGroupData ItemGroupOID="IG.QSSL" data:ItemGroupDataSeq="127">
      <ItemData ItemOID="IT.QSSL.STUDYID" Value="CDISCPILOT01"/>
      <ItemData ItemOID="IT.QSSL.DOMAIN" Value="QS"/>
      <ItemData ItemOID="IT.QSSL.USUBJID" Value="CDISC018"/>
      <ItemData ItemOID="IT.QSSL.QSSEQ" Value="13"/>
      <ItemData ItemOID="IT.QSSL.QSTESTCD" Value="SWLS0102"/>
      <ItemData ItemOID="IT.QSSL.QSTEST" Value="SWLS01-My Life Conditions are Excellent"/>
      <ItemData ItemOID="IT.QSSL.QSCAT" Value="SWLS"/>
      <ItemData ItemOID="IT.QSSL.QSORRES" Value="Slightly agree"/>
      <ItemData ItemOID="IT.QSSL.QSSTRESC" Value="5"/>
      <ItemData ItemOID="IT.QSSL.QSSTRESN" Value="5"/>
      <ItemData ItemOID="IT.QSSL.QSLOBXFL" Value="Y"/>
      <ItemData ItemOID="IT.QSSL.VISITNUM" Value="3"/>
      <ItemData ItemOID="IT.QSSL.VISIT" Value="BASELINE"/>
      <ItemData ItemOID="IT.QSSL.EPOCH" Value="SCREENING"/>
      <ItemData ItemOID="IT.QSSL.QSDTC" Value="2012-12-17"/>
      <ItemData ItemOID="IT.QSSL.QSDY" Value="1"/>
    </ItemGroupData>
    <ItemGroupData ItemGroupOID="IG.QSSL" data:ItemGroupDataSeq="128">
      <ItemData ItemOID="IT.QSSL.STUDYID" Value="CDISCPILOT01"/>
      <ItemData ItemOID="IT.QSSL.DOMAIN" Value="QS"/>
      <ItemData ItemOID="IT.QSSL.USUBJID" Value="CDISC018"/>
      <ItemData ItemOID="IT.QSSL.QSSEQ" Value="14"/>
      <ItemData ItemOID="IT.QSSL.QSTESTCD" Value="SWLS0103"/>
      <ItemData ItemOID="IT.QSSL.QSTEST" Value="SWLS01-I Am Satisfied with My Life"/>
      <ItemData ItemOID="IT.QSSL.QSCAT" Value="SWLS"/>
      <ItemData ItemOID="IT.QSSL.QSORRES" Value="Neither agree nor disagree"/>
      <ItemData ItemOID="IT.QSSL.QSSTRESC" Value="4"/>
      <ItemData ItemOID="IT.QSSL.QSSTRESN" Value="4"/>
      <ItemData ItemOID="IT.QSSL.QSLOBXFL" Value="Y"/>
      <ItemData ItemOID="IT.QSSL.VISITNUM" Value="3"/>
      <ItemData ItemOID="IT.QSSL.VISIT" Value="BASELINE"/>
      <ItemData ItemOID="IT.QSSL.EPOCH" Value="SCREENING"/>
      <ItemData ItemOID="IT.QSSL.QSDTC" Value="2012-12-17"/>
      <ItemData ItemOID="IT.QSSL.QSDY" Value="1"/>
    </ItemGroupData>
    <ItemGroupData ItemGroupOID="IG.QSSL" data:ItemGroupDataSeq="129">
      <ItemData ItemOID="IT.QSSL.STUDYID" Value="CDISCPILOT01"/>
      <ItemData ItemOID="IT.QSSL.DOMAIN" Value="QS"/>
      <ItemData ItemOID="IT.QSSL.USUBJID" Value="CDISC018"/>
      <ItemData ItemOID="IT.QSSL.QSSEQ" Value="15"/>
      <ItemData ItemOID="IT.QSSL.QSTESTCD" Value="SWLS0104"/>
      <ItemData ItemOID="IT.QSSL.QSTEST" Value="SWLS01-Have Gotten Important Things"/>
      <ItemData ItemOID="IT.QSSL.QSCAT" Value="SWLS"/>
      <ItemData ItemOID="IT.QSSL.QSORRES" Value="Agree"/>
      <ItemData ItemOID="IT.QSSL.QSSTRESC" Value="6"/>
      <ItemData ItemOID="IT.QSSL.QSSTRESN" Value="6"/>
      <ItemData ItemOID="IT.QSSL.QSLOBXFL" Value="Y"/>
      <ItemData ItemOID="IT.QSSL.VISITNUM" Value="3"/>
      <ItemData ItemOID="IT.QSSL.VISIT" Value="BASELINE"/>
      <ItemData ItemOID="IT.QSSL.EPOCH" Value="SCREENING"/>
      <ItemData ItemOID="IT.QSSL.QSDTC" Value="2012-12-17"/>
      <ItemData ItemOID="IT.QSSL.QSDY" Value="1"/>
    </ItemGroupData>
    <ItemGroupData ItemGroupOID="IG.QSSL" data:ItemGroupDataSeq="130">
      <ItemData ItemOID="IT.QSSL.STUDYID" Value="CDISCPILOT01"/>
      <ItemData ItemOID="IT.QSSL.DOMAIN" Value="QS"/>
      <ItemData ItemOID="IT.QSSL.USUBJID" Value="CDISC018"/>
      <ItemData ItemOID="IT.QSSL.QSSEQ" Value="16"/>
      <ItemData ItemOID="IT.QSSL.QSTESTCD" Value="SWLS0105"/>
      <ItemData ItemOID="IT.QSSL.QSTEST" Value="SWLS01-Live Life Over Change Nothing"/>
      <ItemData ItemOID="IT.QSSL.QSCAT" Value="SWLS"/>
      <ItemData ItemOID="IT.QSSL.QSORRES" Value="Slightly agree"/>
      <ItemData ItemOID="IT.QSSL.QSSTRESC" Value="5"/>
      <ItemData ItemOID="IT.QSSL.QSSTRESN" Value="5"/>
      <ItemData ItemOID="IT.QSSL.QSLOBXFL" Value="Y"/>
      <ItemData ItemOID="IT.QSSL.VISITNUM" Value="3"/>
      <ItemData ItemOID="IT.QSSL.VISIT" Value="BASELINE"/>
      <ItemData ItemOID="IT.QSSL.EPOCH" Value="SCREENING"/>
      <ItemData ItemOID="IT.QSSL.QSDTC" Value="2012-12-17"/>
      <ItemData ItemOID="IT.QSSL.QSDY" Value="1"/>
    </ItemGroupData>
    <ItemGroupData ItemGroupOID="IG.QSSL" data:ItemGroupDataSeq="131">
      <ItemData ItemOID="IT.QSSL.STUDYID" Value="CDISCPILOT01"/>
      <ItemData ItemOID="IT.QSSL.DOMAIN" Value="QS"/>
      <ItemData ItemOID="IT.QSSL.USUBJID" Value="CDISC018"/>
      <ItemData ItemOID="IT.QSSL.QSSEQ" Value="28"/>
      <ItemData ItemOID="IT.QSSL.QSTESTCD" Value="SWLS0101"/>
      <ItemData ItemOID="IT.QSSL.QSTEST" Value="SWLS01-My Life is Close to Ideal"/>
      <ItemData ItemOID="IT.QSSL.QSCAT" Value="SWLS"/>
      <ItemData ItemOID="IT.QSSL.QSORRES" Value="Neither agree nor disagree"/>
      <ItemData ItemOID="IT.QSSL.QSSTRESC" Value="4"/>
      <ItemData ItemOID="IT.QSSL.QSSTRESN" Value="4"/>
      <ItemData ItemOID="IT.QSSL.VISITNUM" Value="201"/>
      <ItemData ItemOID="IT.QSSL.VISIT" Value="EARLY DISCONTINUATION RETRIEVAL"/>
      <ItemData ItemOID="IT.QSSL.EPOCH" Value="TREATMENT"/>
      <ItemData ItemOID="IT.QSSL.QSDTC" Value="2013-06-03"/>
      <ItemData ItemOID="IT.QSSL.QSDY" Value="169"/>
    </ItemGroupData>
    <ItemGroupData ItemGroupOID="IG.QSSL" data:ItemGroupDataSeq="132">
      <ItemData ItemOID="IT.QSSL.STUDYID" Value="CDISCPILOT01"/>
      <ItemData ItemOID="IT.QSSL.DOMAIN" Value="QS"/>
      <ItemData ItemOID="IT.QSSL.USUBJID" Value="CDISC018"/>
      <ItemData ItemOID="IT.QSSL.QSSEQ" Value="29"/>
      <ItemData ItemOID="IT.QSSL.QSTESTCD" Value="SWLS0102"/>
      <ItemData ItemOID="IT.QSSL.QSTEST" Value="SWLS01-My Life Conditions are Excellent"/>
      <ItemData ItemOID="IT.QSSL.QSCAT" Value="SWLS"/>
      <ItemData ItemOID="IT.QSSL.QSORRES" Value="Slightly agree"/>
      <ItemData ItemOID="IT.QSSL.QSSTRESC" Value="5"/>
      <ItemData ItemOID="IT.QSSL.QSSTRESN" Value="5"/>
      <ItemData ItemOID="IT.QSSL.VISITNUM" Value="201"/>
      <ItemData ItemOID="IT.QSSL.VISIT" Value="EARLY DISCONTINUATION RETRIEVAL"/>
      <ItemData ItemOID="IT.QSSL.EPOCH" Value="TREATMENT"/>
      <ItemData ItemOID="IT.QSSL.QSDTC" Value="2013-06-03"/>
      <ItemData ItemOID="IT.QSSL.QSDY" Value="169"/>
    </ItemGroupData>
    <ItemGroupData ItemGroupOID="IG.QSSL" data:ItemGroupDataSeq="133">
      <ItemData ItemOID="IT.QSSL.STUDYID" Value="CDISCPILOT01"/>
      <ItemData ItemOID="IT.QSSL.DOMAIN" Value="QS"/>
      <ItemData ItemOID="IT.QSSL.USUBJID" Value="CDISC018"/>
      <ItemData ItemOID="IT.QSSL.QSSEQ" Value="30"/>
      <ItemData ItemOID="IT.QSSL.QSTESTCD" Value="SWLS0103"/>
      <ItemData ItemOID="IT.QSSL.QSTEST" Value="SWLS01-I Am Satisfied with My Life"/>
      <ItemData ItemOID="IT.QSSL.QSCAT" Value="SWLS"/>
      <ItemData ItemOID="IT.QSSL.QSORRES" Value="Neither agree nor disagree"/>
      <ItemData ItemOID="IT.QSSL.QSSTRESC" Value="4"/>
      <ItemData ItemOID="IT.QSSL.QSSTRESN" Value="4"/>
      <ItemData ItemOID="IT.QSSL.VISITNUM" Value="201"/>
      <ItemData ItemOID="IT.QSSL.VISIT" Value="EARLY DISCONTINUATION RETRIEVAL"/>
      <ItemData ItemOID="IT.QSSL.EPOCH" Value="TREATMENT"/>
      <ItemData ItemOID="IT.QSSL.QSDTC" Value="2013-06-03"/>
      <ItemData ItemOID="IT.QSSL.QSDY" Value="169"/>
    </ItemGroupData>
    <ItemGroupData ItemGroupOID="IG.QSSL" data:ItemGroupDataSeq="134">
      <ItemData ItemOID="IT.QSSL.STUDYID" Value="CDISCPILOT01"/>
      <ItemData ItemOID="IT.QSSL.DOMAIN" Value="QS"/>
      <ItemData ItemOID="IT.QSSL.USUBJID" Value="CDISC018"/>
      <ItemData ItemOID="IT.QSSL.QSSEQ" Value="31"/>
      <ItemData ItemOID="IT.QSSL.QSTESTCD" Value="SWLS0104"/>
      <ItemData ItemOID="IT.QSSL.QSTEST" Value="SWLS01-Have Gotten Important Things"/>
      <ItemData ItemOID="IT.QSSL.QSCAT" Value="SWLS"/>
      <ItemData ItemOID="IT.QSSL.QSORRES" Value="Agree"/>
      <ItemData ItemOID="IT.QSSL.QSSTRESC" Value="6"/>
      <ItemData ItemOID="IT.QSSL.QSSTRESN" Value="6"/>
      <ItemData ItemOID="IT.QSSL.VISITNUM" Value="201"/>
      <ItemData ItemOID="IT.QSSL.VISIT" Value="EARLY DISCONTINUATION RETRIEVAL"/>
      <ItemData ItemOID="IT.QSSL.EPOCH" Value="TREATMENT"/>
      <ItemData ItemOID="IT.QSSL.QSDTC" Value="2013-06-03"/>
      <ItemData ItemOID="IT.QSSL.QSDY" Value="169"/>
    </ItemGroupData>
    <ItemGroupData ItemGroupOID="IG.QSSL" data:ItemGroupDataSeq="135">
      <ItemData ItemOID="IT.QSSL.STUDYID" Value="CDISCPILOT01"/>
      <ItemData ItemOID="IT.QSSL.DOMAIN" Value="QS"/>
      <ItemData ItemOID="IT.QSSL.USUBJID" Value="CDISC018"/>
      <ItemData ItemOID="IT.QSSL.QSSEQ" Value="32"/>
      <ItemData ItemOID="IT.QSSL.QSTESTCD" Value="SWLS0105"/>
      <ItemData ItemOID="IT.QSSL.QSTEST" Value="SWLS01-Live Life Over Change Nothing"/>
      <ItemData ItemOID="IT.QSSL.QSCAT" Value="SWLS"/>
      <ItemData ItemOID="IT.QSSL.QSORRES" Value="Slightly agree"/>
      <ItemData ItemOID="IT.QSSL.QSSTRESC" Value="5"/>
      <ItemData ItemOID="IT.QSSL.QSSTRESN" Value="5"/>
      <ItemData ItemOID="IT.QSSL.VISITNUM" Value="201"/>
      <ItemData ItemOID="IT.QSSL.VISIT" Value="EARLY DISCONTINUATION RETRIEVAL"/>
      <ItemData ItemOID="IT.QSSL.EPOCH" Value="TREATMENT"/>
      <ItemData ItemOID="IT.QSSL.QSDTC" Value="2013-06-03"/>
      <ItemData ItemOID="IT.QSSL.QSDY" Value="169"/>
    </ItemGroupData>
  </ClinicalData>
</ODM>
