<?xml version="1.0" encoding="UTF-8"?>
<!-- Dataset-XML: Untyped Data Example  --> 
<!-- Built from the SAS XPT files published with the SDTM-MSG (SDTM Metadata Submission Guidelines) V2.0 --> 
<ODM
  xmlns="http://www.cdisc.org/ns/odm/v1.3"
  xmlns:xlink="http://www.w3.org/1999/xlink" 
  xmlns:data="http://www.cdisc.org/ns/Dataset-XML/v1.0"
  FileType="Snapshot"
  ODMVersion="1.3.2"
  data:DatasetXMLVersion="1.0.0"
  FileOID="www.cdisc.org/StudyMSGv2/1/Define-XML_2.1.0(IG.RS).Data(RS)"
  PriorFileOID="www.cdisc.org/StudyMSGv2/1/Define-XML_2.1.0"
  CreationDateTime="2020-08-21T09:21:13"
  Originator="CDISC MSG Team"
  SourceSystem="M.Hungria-System"
  SourceSystemVersion="2.1-A1"
  >
  <ClinicalData
    StudyOID="cdisc.com/CDISCPILOT01"
    MetaDataVersionOID="MDV.MSGv2.0.SDTMIG.3.3.SDTM.1.7">
    <!-- Dataset (RS) -->
    <ItemGroupData ItemGroupOID="IG.RS" data:ItemGroupDataSeq="1">
      <ItemData ItemOID="IT.RS.STUDYID" Value="CDISCPILOT01"/>
      <ItemData ItemOID="IT.RS.DOMAIN" Value="RS"/>
      <ItemData ItemOID="IT.RS.USUBJID" Value="CDISC001"/>
      <ItemData ItemOID="IT.RS.RSSEQ" Value="1"/>
      <ItemData ItemOID="IT.RS.RSTESTCD" Value="HAMD101"/>
      <ItemData ItemOID="IT.RS.RSTEST" Value="HAMD1-Depressed Mood"/>
      <ItemData ItemOID="IT.RS.RSCAT" Value="HAMD 17"/>
      <ItemData ItemOID="IT.RS.RSORRES" Value="These feeling states indicated only on questioning."/>
      <ItemData ItemOID="IT.RS.RSSTRESC" Value="1"/>
      <ItemData ItemOID="IT.RS.RSSTRESN" Value="1"/>
      <ItemData ItemOID="IT.RS.RSLOBXFL" Value="Y"/>
      <ItemData ItemOID="IT.RS.VISITNUM" Value="3"/>
      <ItemData ItemOID="IT.RS.VISIT" Value="BASELINE"/>
      <ItemData ItemOID="IT.RS.EPOCH" Value="SCREENING"/>
      <ItemData ItemOID="IT.RS.RSDTC" Value="2012-11-30"/>
      <ItemData ItemOID="IT.RS.RSDY" Value="1"/>
      <ItemData ItemOID="IT.RS.RSEVLINT" Value="-P1W"/>
    </ItemGroupData>
    <ItemGroupData ItemGroupOID="IG.RS" data:ItemGroupDataSeq="2">
      <ItemData ItemOID="IT.RS.STUDYID" Value="CDISCPILOT01"/>
      <ItemData ItemOID="IT.RS.DOMAIN" Value="RS"/>
      <ItemData ItemOID="IT.RS.USUBJID" Value="CDISC001"/>
      <ItemData ItemOID="IT.RS.RSSEQ" Value="2"/>
      <ItemData ItemOID="IT.RS.RSTESTCD" Value="HAMD102"/>
      <ItemData ItemOID="IT.RS.RSTEST" Value="HAMD1-Feelings of Guilt"/>
      <ItemData ItemOID="IT.RS.RSCAT" Value="HAMD 17"/>
      <ItemData ItemOID="IT.RS.RSORRES" Value="Absent."/>
      <ItemData ItemOID="IT.RS.RSSTRESC" Value="0"/>
      <ItemData ItemOID="IT.RS.RSSTRESN" Value="0"/>
      <ItemData ItemOID="IT.RS.RSLOBXFL" Value="Y"/>
      <ItemData ItemOID="IT.RS.VISITNUM" Value="3"/>
      <ItemData ItemOID="IT.RS.VISIT" Value="BASELINE"/>
      <ItemData ItemOID="IT.RS.EPOCH" Value="SCREENING"/>
      <ItemData ItemOID="IT.RS.RSDTC" Value="2012-11-30"/>
      <ItemData ItemOID="IT.RS.RSDY" Value="1"/>
      <ItemData ItemOID="IT.RS.RSEVLINT" Value="-P1W"/>
    </ItemGroupData>
    <ItemGroupData ItemGroupOID="IG.RS" data:ItemGroupDataSeq="3">
      <ItemData ItemOID="IT.RS.STUDYID" Value="CDISCPILOT01"/>
      <ItemData ItemOID="IT.RS.DOMAIN" Value="RS"/>
      <ItemData ItemOID="IT.RS.USUBJID" Value="CDISC001"/>
      <ItemData ItemOID="IT.RS.RSSEQ" Value="3"/>
      <ItemData ItemOID="IT.RS.RSTESTCD" Value="HAMD103"/>
      <ItemData ItemOID="IT.RS.RSTEST" Value="HAMD1-Suicide"/>
      <ItemData ItemOID="IT.RS.RSCAT" Value="HAMD 17"/>
      <ItemData ItemOID="IT.RS.RSORRES" Value="Absent."/>
      <ItemData ItemOID="IT.RS.RSSTRESC" Value="0"/>
      <ItemData ItemOID="IT.RS.RSSTRESN" Value="0"/>
      <ItemData ItemOID="IT.RS.RSLOBXFL" Value="Y"/>
      <ItemData ItemOID="IT.RS.VISITNUM" Value="3"/>
      <ItemData ItemOID="IT.RS.VISIT" Value="BASELINE"/>
      <ItemData ItemOID="IT.RS.EPOCH" Value="SCREENING"/>
      <ItemData ItemOID="IT.RS.RSDTC" Value="2012-11-30"/>
      <ItemData ItemOID="IT.RS.RSDY" Value="1"/>
      <ItemData ItemOID="IT.RS.RSEVLINT" Value="-P1W"/>
    </ItemGroupData>
    <ItemGroupData ItemGroupOID="IG.RS" data:ItemGroupDataSeq="4">
      <ItemData ItemOID="IT.RS.STUDYID" Value="CDISCPILOT01"/>
      <ItemData ItemOID="IT.RS.DOMAIN" Value="RS"/>
      <ItemData ItemOID="IT.RS.USUBJID" Value="CDISC001"/>
      <ItemData ItemOID="IT.RS.RSSEQ" Value="4"/>
      <ItemData ItemOID="IT.RS.RSTESTCD" Value="HAMD104"/>
      <ItemData ItemOID="IT.RS.RSTEST" Value="HAMD1-Insomnia Early - Early Night"/>
      <ItemData ItemOID="IT.RS.RSCAT" Value="HAMD 17"/>
      <ItemData ItemOID="IT.RS.RSORRES" Value="No difficulty falling asleep."/>
      <ItemData ItemOID="IT.RS.RSSTRESC" Value="0"/>
      <ItemData ItemOID="IT.RS.RSSTRESN" Value="0"/>
      <ItemData ItemOID="IT.RS.RSLOBXFL" Value="Y"/>
      <ItemData ItemOID="IT.RS.VISITNUM" Value="3"/>
      <ItemData ItemOID="IT.RS.VISIT" Value="BASELINE"/>
      <ItemData ItemOID="IT.RS.EPOCH" Value="SCREENING"/>
      <ItemData ItemOID="IT.RS.RSDTC" Value="2012-11-30"/>
      <ItemData ItemOID="IT.RS.RSDY" Value="1"/>
      <ItemData ItemOID="IT.RS.RSEVLINT" Value="-P1W"/>
    </ItemGroupData>
    <ItemGroupData ItemGroupOID="IG.RS" data:ItemGroupDataSeq="5">
      <ItemData ItemOID="IT.RS.STUDYID" Value="CDISCPILOT01"/>
      <ItemData ItemOID="IT.RS.DOMAIN" Value="RS"/>
      <ItemData ItemOID="IT.RS.USUBJID" Value="CDISC001"/>
      <ItemData ItemOID="IT.RS.RSSEQ" Value="5"/>
      <ItemData ItemOID="IT.RS.RSTESTCD" Value="HAMD105"/>
      <ItemData ItemOID="IT.RS.RSTEST" Value="HAMD1-Insomnia Middle - Middle Night"/>
      <ItemData ItemOID="IT.RS.RSCAT" Value="HAMD 17"/>
      <ItemData ItemOID="IT.RS.RSORRES" Value="No difficulty."/>
      <ItemData ItemOID="IT.RS.RSSTRESC" Value="0"/>
      <ItemData ItemOID="IT.RS.RSSTRESN" Value="0"/>
      <ItemData ItemOID="IT.RS.RSLOBXFL" Value="Y"/>
      <ItemData ItemOID="IT.RS.VISITNUM" Value="3"/>
      <ItemData ItemOID="IT.RS.VISIT" Value="BASELINE"/>
      <ItemData ItemOID="IT.RS.EPOCH" Value="SCREENING"/>
      <ItemData ItemOID="IT.RS.RSDTC" Value="2012-11-30"/>
      <ItemData ItemOID="IT.RS.RSDY" Value="1"/>
      <ItemData ItemOID="IT.RS.RSEVLINT" Value="-P1W"/>
    </ItemGroupData>
    <ItemGroupData ItemGroupOID="IG.RS" data:ItemGroupDataSeq="6">
      <ItemData ItemOID="IT.RS.STUDYID" Value="CDISCPILOT01"/>
      <ItemData ItemOID="IT.RS.DOMAIN" Value="RS"/>
      <ItemData ItemOID="IT.RS.USUBJID" Value="CDISC001"/>
      <ItemData ItemOID="IT.RS.RSSEQ" Value="6"/>
      <ItemData ItemOID="IT.RS.RSTESTCD" Value="HAMD106"/>
      <ItemData ItemOID="IT.RS.RSTEST" Value="HAMD1-Insomnia Early Hours - Morning"/>
      <ItemData ItemOID="IT.RS.RSCAT" Value="HAMD 17"/>
      <ItemData ItemOID="IT.RS.RSORRES" Value="No difficulty."/>
      <ItemData ItemOID="IT.RS.RSSTRESC" Value="0"/>
      <ItemData ItemOID="IT.RS.RSSTRESN" Value="0"/>
      <ItemData ItemOID="IT.RS.RSLOBXFL" Value="Y"/>
      <ItemData ItemOID="IT.RS.VISITNUM" Value="3"/>
      <ItemData ItemOID="IT.RS.VISIT" Value="BASELINE"/>
      <ItemData ItemOID="IT.RS.EPOCH" Value="SCREENING"/>
      <ItemData ItemOID="IT.RS.RSDTC" Value="2012-11-30"/>
      <ItemData ItemOID="IT.RS.RSDY" Value="1"/>
      <ItemData ItemOID="IT.RS.RSEVLINT" Value="-P1W"/>
    </ItemGroupData>
    <ItemGroupData ItemGroupOID="IG.RS" data:ItemGroupDataSeq="7">
      <ItemData ItemOID="IT.RS.STUDYID" Value="CDISCPILOT01"/>
      <ItemData ItemOID="IT.RS.DOMAIN" Value="RS"/>
      <ItemData ItemOID="IT.RS.USUBJID" Value="CDISC001"/>
      <ItemData ItemOID="IT.RS.RSSEQ" Value="7"/>
      <ItemData ItemOID="IT.RS.RSTESTCD" Value="HAMD107"/>
      <ItemData ItemOID="IT.RS.RSTEST" Value="HAMD1-Work and Activities"/>
      <ItemData ItemOID="IT.RS.RSCAT" Value="HAMD 17"/>
      <ItemData ItemOID="IT.RS.RSORRES" Value="No difficulty."/>
      <ItemData ItemOID="IT.RS.RSSTRESC" Value="0"/>
      <ItemData ItemOID="IT.RS.RSSTRESN" Value="0"/>
      <ItemData ItemOID="IT.RS.RSLOBXFL" Value="Y"/>
      <ItemData ItemOID="IT.RS.VISITNUM" Value="3"/>
      <ItemData ItemOID="IT.RS.VISIT" Value="BASELINE"/>
      <ItemData ItemOID="IT.RS.EPOCH" Value="SCREENING"/>
      <ItemData ItemOID="IT.RS.RSDTC" Value="2012-11-30"/>
      <ItemData ItemOID="IT.RS.RSDY" Value="1"/>
      <ItemData ItemOID="IT.RS.RSEVLINT" Value="-P1W"/>
    </ItemGroupData>
    <ItemGroupData ItemGroupOID="IG.RS" data:ItemGroupDataSeq="8">
      <ItemData ItemOID="IT.RS.STUDYID" Value="CDISCPILOT01"/>
      <ItemData ItemOID="IT.RS.DOMAIN" Value="RS"/>
      <ItemData ItemOID="IT.RS.USUBJID" Value="CDISC001"/>
      <ItemData ItemOID="IT.RS.RSSEQ" Value="8"/>
      <ItemData ItemOID="IT.RS.RSTESTCD" Value="HAMD108"/>
      <ItemData ItemOID="IT.RS.RSTEST" Value="HAMD1-Retardation"/>
      <ItemData ItemOID="IT.RS.RSCAT" Value="HAMD 17"/>
      <ItemData ItemOID="IT.RS.RSORRES" Value="Normal speech and thought."/>
      <ItemData ItemOID="IT.RS.RSSTRESC" Value="0"/>
      <ItemData ItemOID="IT.RS.RSSTRESN" Value="0"/>
      <ItemData ItemOID="IT.RS.RSLOBXFL" Value="Y"/>
      <ItemData ItemOID="IT.RS.VISITNUM" Value="3"/>
      <ItemData ItemOID="IT.RS.VISIT" Value="BASELINE"/>
      <ItemData ItemOID="IT.RS.EPOCH" Value="SCREENING"/>
      <ItemData ItemOID="IT.RS.RSDTC" Value="2012-11-30"/>
      <ItemData ItemOID="IT.RS.RSDY" Value="1"/>
      <ItemData ItemOID="IT.RS.RSEVLINT" Value="-P1W"/>
    </ItemGroupData>
    <ItemGroupData ItemGroupOID="IG.RS" data:ItemGroupDataSeq="9">
      <ItemData ItemOID="IT.RS.STUDYID" Value="CDISCPILOT01"/>
      <ItemData ItemOID="IT.RS.DOMAIN" Value="RS"/>
      <ItemData ItemOID="IT.RS.USUBJID" Value="CDISC001"/>
      <ItemData ItemOID="IT.RS.RSSEQ" Value="9"/>
      <ItemData ItemOID="IT.RS.RSTESTCD" Value="HAMD109"/>
      <ItemData ItemOID="IT.RS.RSTEST" Value="HAMD1-Agitation"/>
      <ItemData ItemOID="IT.RS.RSCAT" Value="HAMD 17"/>
      <ItemData ItemOID="IT.RS.RSORRES" Value="None."/>
      <ItemData ItemOID="IT.RS.RSSTRESC" Value="0"/>
      <ItemData ItemOID="IT.RS.RSSTRESN" Value="0"/>
      <ItemData ItemOID="IT.RS.RSLOBXFL" Value="Y"/>
      <ItemData ItemOID="IT.RS.VISITNUM" Value="3"/>
      <ItemData ItemOID="IT.RS.VISIT" Value="BASELINE"/>
      <ItemData ItemOID="IT.RS.EPOCH" Value="SCREENING"/>
      <ItemData ItemOID="IT.RS.RSDTC" Value="2012-11-30"/>
      <ItemData ItemOID="IT.RS.RSDY" Value="1"/>
      <ItemData ItemOID="IT.RS.RSEVLINT" Value="-P1W"/>
    </ItemGroupData>
    <ItemGroupData ItemGroupOID="IG.RS" data:ItemGroupDataSeq="10">
      <ItemData ItemOID="IT.RS.STUDYID" Value="CDISCPILOT01"/>
      <ItemData ItemOID="IT.RS.DOMAIN" Value="RS"/>
      <ItemData ItemOID="IT.RS.USUBJID" Value="CDISC001"/>
      <ItemData ItemOID="IT.RS.RSSEQ" Value="10"/>
      <ItemData ItemOID="IT.RS.RSTESTCD" Value="HAMD110"/>
      <ItemData ItemOID="IT.RS.RSTEST" Value="HAMD1-Anxiety Psychic"/>
      <ItemData ItemOID="IT.RS.RSCAT" Value="HAMD 17"/>
      <ItemData ItemOID="IT.RS.RSORRES" Value="No difficulty."/>
      <ItemData ItemOID="IT.RS.RSSTRESC" Value="0"/>
      <ItemData ItemOID="IT.RS.RSSTRESN" Value="0"/>
      <ItemData ItemOID="IT.RS.RSLOBXFL" Value="Y"/>
      <ItemData ItemOID="IT.RS.VISITNUM" Value="3"/>
      <ItemData ItemOID="IT.RS.VISIT" Value="BASELINE"/>
      <ItemData ItemOID="IT.RS.EPOCH" Value="SCREENING"/>
      <ItemData ItemOID="IT.RS.RSDTC" Value="2012-11-30"/>
      <ItemData ItemOID="IT.RS.RSDY" Value="1"/>
      <ItemData ItemOID="IT.RS.RSEVLINT" Value="-P1W"/>
    </ItemGroupData>
    <ItemGroupData ItemGroupOID="IG.RS" data:ItemGroupDataSeq="11">
      <ItemData ItemOID="IT.RS.STUDYID" Value="CDISCPILOT01"/>
      <ItemData ItemOID="IT.RS.DOMAIN" Value="RS"/>
      <ItemData ItemOID="IT.RS.USUBJID" Value="CDISC001"/>
      <ItemData ItemOID="IT.RS.RSSEQ" Value="11"/>
      <ItemData ItemOID="IT.RS.RSTESTCD" Value="HAMD111"/>
      <ItemData ItemOID="IT.RS.RSTEST" Value="HAMD1-Anxiety Somatic"/>
      <ItemData ItemOID="IT.RS.RSCAT" Value="HAMD 17"/>
      <ItemData ItemOID="IT.RS.RSORRES" Value="Absent."/>
      <ItemData ItemOID="IT.RS.RSSTRESC" Value="0"/>
      <ItemData ItemOID="IT.RS.RSSTRESN" Value="0"/>
      <ItemData ItemOID="IT.RS.RSLOBXFL" Value="Y"/>
      <ItemData ItemOID="IT.RS.VISITNUM" Value="3"/>
      <ItemData ItemOID="IT.RS.VISIT" Value="BASELINE"/>
      <ItemData ItemOID="IT.RS.EPOCH" Value="SCREENING"/>
      <ItemData ItemOID="IT.RS.RSDTC" Value="2012-11-30"/>
      <ItemData ItemOID="IT.RS.RSDY" Value="1"/>
      <ItemData ItemOID="IT.RS.RSEVLINT" Value="-P1W"/>
    </ItemGroupData>
    <ItemGroupData ItemGroupOID="IG.RS" data:ItemGroupDataSeq="12">
      <ItemData ItemOID="IT.RS.STUDYID" Value="CDISCPILOT01"/>
      <ItemData ItemOID="IT.RS.DOMAIN" Value="RS"/>
      <ItemData ItemOID="IT.RS.USUBJID" Value="CDISC001"/>
      <ItemData ItemOID="IT.RS.RSSEQ" Value="12"/>
      <ItemData ItemOID="IT.RS.RSTESTCD" Value="HAMD112"/>
      <ItemData ItemOID="IT.RS.RSTEST" Value="HAMD1-Somatic Symptoms GI"/>
      <ItemData ItemOID="IT.RS.RSCAT" Value="HAMD 17"/>
      <ItemData ItemOID="IT.RS.RSORRES" Value="None."/>
      <ItemData ItemOID="IT.RS.RSSTRESC" Value="0"/>
      <ItemData ItemOID="IT.RS.RSSTRESN" Value="0"/>
      <ItemData ItemOID="IT.RS.RSLOBXFL" Value="Y"/>
      <ItemData ItemOID="IT.RS.VISITNUM" Value="3"/>
      <ItemData ItemOID="IT.RS.VISIT" Value="BASELINE"/>
      <ItemData ItemOID="IT.RS.EPOCH" Value="SCREENING"/>
      <ItemData ItemOID="IT.RS.RSDTC" Value="2012-11-30"/>
      <ItemData ItemOID="IT.RS.RSDY" Value="1"/>
      <ItemData ItemOID="IT.RS.RSEVLINT" Value="-P1W"/>
    </ItemGroupData>
    <ItemGroupData ItemGroupOID="IG.RS" data:ItemGroupDataSeq="13">
      <ItemData ItemOID="IT.RS.STUDYID" Value="CDISCPILOT01"/>
      <ItemData ItemOID="IT.RS.DOMAIN" Value="RS"/>
      <ItemData ItemOID="IT.RS.USUBJID" Value="CDISC001"/>
      <ItemData ItemOID="IT.RS.RSSEQ" Value="13"/>
      <ItemData ItemOID="IT.RS.RSTESTCD" Value="HAMD113"/>
      <ItemData ItemOID="IT.RS.RSTEST" Value="HAMD1-General Somatic Symptoms"/>
      <ItemData ItemOID="IT.RS.RSCAT" Value="HAMD 17"/>
      <ItemData ItemOID="IT.RS.RSORRES" Value="None."/>
      <ItemData ItemOID="IT.RS.RSSTRESC" Value="0"/>
      <ItemData ItemOID="IT.RS.RSSTRESN" Value="0"/>
      <ItemData ItemOID="IT.RS.RSLOBXFL" Value="Y"/>
      <ItemData ItemOID="IT.RS.VISITNUM" Value="3"/>
      <ItemData ItemOID="IT.RS.VISIT" Value="BASELINE"/>
      <ItemData ItemOID="IT.RS.EPOCH" Value="SCREENING"/>
      <ItemData ItemOID="IT.RS.RSDTC" Value="2012-11-30"/>
      <ItemData ItemOID="IT.RS.RSDY" Value="1"/>
      <ItemData ItemOID="IT.RS.RSEVLINT" Value="-P1W"/>
    </ItemGroupData>
    <ItemGroupData ItemGroupOID="IG.RS" data:ItemGroupDataSeq="14">
      <ItemData ItemOID="IT.RS.STUDYID" Value="CDISCPILOT01"/>
      <ItemData ItemOID="IT.RS.DOMAIN" Value="RS"/>
      <ItemData ItemOID="IT.RS.USUBJID" Value="CDISC001"/>
      <ItemData ItemOID="IT.RS.RSSEQ" Value="14"/>
      <ItemData ItemOID="IT.RS.RSTESTCD" Value="HAMD114"/>
      <ItemData ItemOID="IT.RS.RSTEST" Value="HAMD1-Genital Symptoms"/>
      <ItemData ItemOID="IT.RS.RSCAT" Value="HAMD 17"/>
      <ItemData ItemOID="IT.RS.RSORRES" Value="Absent."/>
      <ItemData ItemOID="IT.RS.RSSTRESC" Value="1"/>
      <ItemData ItemOID="IT.RS.RSSTRESN" Value="1"/>
      <ItemData ItemOID="IT.RS.RSLOBXFL" Value="Y"/>
      <ItemData ItemOID="IT.RS.VISITNUM" Value="3"/>
      <ItemData ItemOID="IT.RS.VISIT" Value="BASELINE"/>
      <ItemData ItemOID="IT.RS.EPOCH" Value="SCREENING"/>
      <ItemData ItemOID="IT.RS.RSDTC" Value="2012-11-30"/>
      <ItemData ItemOID="IT.RS.RSDY" Value="1"/>
      <ItemData ItemOID="IT.RS.RSEVLINT" Value="-P1W"/>
    </ItemGroupData>
    <ItemGroupData ItemGroupOID="IG.RS" data:ItemGroupDataSeq="15">
      <ItemData ItemOID="IT.RS.STUDYID" Value="CDISCPILOT01"/>
      <ItemData ItemOID="IT.RS.DOMAIN" Value="RS"/>
      <ItemData ItemOID="IT.RS.USUBJID" Value="CDISC001"/>
      <ItemData ItemOID="IT.RS.RSSEQ" Value="15"/>
      <ItemData ItemOID="IT.RS.RSTESTCD" Value="HAMD115"/>
      <ItemData ItemOID="IT.RS.RSTEST" Value="HAMD1-Hypochondriasis"/>
      <ItemData ItemOID="IT.RS.RSCAT" Value="HAMD 17"/>
      <ItemData ItemOID="IT.RS.RSORRES" Value="Self-absorption (bodily)."/>
      <ItemData ItemOID="IT.RS.RSSTRESC" Value="1"/>
      <ItemData ItemOID="IT.RS.RSSTRESN" Value="1"/>
      <ItemData ItemOID="IT.RS.RSLOBXFL" Value="Y"/>
      <ItemData ItemOID="IT.RS.VISITNUM" Value="3"/>
      <ItemData ItemOID="IT.RS.VISIT" Value="BASELINE"/>
      <ItemData ItemOID="IT.RS.EPOCH" Value="SCREENING"/>
      <ItemData ItemOID="IT.RS.RSDTC" Value="2012-11-30"/>
      <ItemData ItemOID="IT.RS.RSDY" Value="1"/>
      <ItemData ItemOID="IT.RS.RSEVLINT" Value="-P1W"/>
    </ItemGroupData>
    <ItemGroupData ItemGroupOID="IG.RS" data:ItemGroupDataSeq="16">
      <ItemData ItemOID="IT.RS.STUDYID" Value="CDISCPILOT01"/>
      <ItemData ItemOID="IT.RS.DOMAIN" Value="RS"/>
      <ItemData ItemOID="IT.RS.USUBJID" Value="CDISC001"/>
      <ItemData ItemOID="IT.RS.RSSEQ" Value="16"/>
      <ItemData ItemOID="IT.RS.RSTESTCD" Value="HAMD116B"/>
      <ItemData ItemOID="IT.RS.RSTEST" Value="HAMD1-Loss of WT According to WK Meas"/>
      <ItemData ItemOID="IT.RS.RSCAT" Value="HAMD 17"/>
      <ItemData ItemOID="IT.RS.RSORRES" Value="No weight loss."/>
      <ItemData ItemOID="IT.RS.RSSTRESC" Value="0"/>
      <ItemData ItemOID="IT.RS.RSSTRESN" Value="0"/>
      <ItemData ItemOID="IT.RS.RSLOBXFL" Value="Y"/>
      <ItemData ItemOID="IT.RS.VISITNUM" Value="3"/>
      <ItemData ItemOID="IT.RS.VISIT" Value="BASELINE"/>
      <ItemData ItemOID="IT.RS.EPOCH" Value="SCREENING"/>
      <ItemData ItemOID="IT.RS.RSDTC" Value="2012-11-30"/>
      <ItemData ItemOID="IT.RS.RSDY" Value="1"/>
      <ItemData ItemOID="IT.RS.RSEVLINT" Value="-P1W"/>
    </ItemGroupData>
    <ItemGroupData ItemGroupOID="IG.RS" data:ItemGroupDataSeq="17">
      <ItemData ItemOID="IT.RS.STUDYID" Value="CDISCPILOT01"/>
      <ItemData ItemOID="IT.RS.DOMAIN" Value="RS"/>
      <ItemData ItemOID="IT.RS.USUBJID" Value="CDISC001"/>
      <ItemData ItemOID="IT.RS.RSSEQ" Value="17"/>
      <ItemData ItemOID="IT.RS.RSTESTCD" Value="HAMD117"/>
      <ItemData ItemOID="IT.RS.RSTEST" Value="HAMD1-Insight"/>
      <ItemData ItemOID="IT.RS.RSCAT" Value="HAMD 17"/>
      <ItemData ItemOID="IT.RS.RSORRES" Value="Acknowledges being depressed and ill."/>
      <ItemData ItemOID="IT.RS.RSSTRESC" Value="0"/>
      <ItemData ItemOID="IT.RS.RSSTRESN" Value="0"/>
      <ItemData ItemOID="IT.RS.RSLOBXFL" Value="Y"/>
      <ItemData ItemOID="IT.RS.VISITNUM" Value="3"/>
      <ItemData ItemOID="IT.RS.VISIT" Value="BASELINE"/>
      <ItemData ItemOID="IT.RS.EPOCH" Value="SCREENING"/>
      <ItemData ItemOID="IT.RS.RSDTC" Value="2012-11-30"/>
      <ItemData ItemOID="IT.RS.RSDY" Value="1"/>
      <ItemData ItemOID="IT.RS.RSEVLINT" Value="-P1W"/>
    </ItemGroupData>
    <ItemGroupData ItemGroupOID="IG.RS" data:ItemGroupDataSeq="18">
      <ItemData ItemOID="IT.RS.STUDYID" Value="CDISCPILOT01"/>
      <ItemData ItemOID="IT.RS.DOMAIN" Value="RS"/>
      <ItemData ItemOID="IT.RS.USUBJID" Value="CDISC001"/>
      <ItemData ItemOID="IT.RS.RSSEQ" Value="18"/>
      <ItemData ItemOID="IT.RS.RSTESTCD" Value="HAMD101"/>
      <ItemData ItemOID="IT.RS.RSTEST" Value="HAMD1-Depressed Mood"/>
      <ItemData ItemOID="IT.RS.RSCAT" Value="HAMD 17"/>
      <ItemData ItemOID="IT.RS.RSORRES" Value="Absent."/>
      <ItemData ItemOID="IT.RS.RSSTRESC" Value="0"/>
      <ItemData ItemOID="IT.RS.RSSTRESN" Value="0"/>
      <ItemData ItemOID="IT.RS.VISITNUM" Value="201"/>
      <ItemData ItemOID="IT.RS.VISIT" Value="EARLY DISCONTINUATION RETRIEVAL"/>
      <ItemData ItemOID="IT.RS.EPOCH" Value="TREATMENT"/>
      <ItemData ItemOID="IT.RS.RSDTC" Value="2013-05-20"/>
      <ItemData ItemOID="IT.RS.RSDY" Value="172"/>
      <ItemData ItemOID="IT.RS.RSEVLINT" Value="-P1W"/>
    </ItemGroupData>
    <ItemGroupData ItemGroupOID="IG.RS" data:ItemGroupDataSeq="19">
      <ItemData ItemOID="IT.RS.STUDYID" Value="CDISCPILOT01"/>
      <ItemData ItemOID="IT.RS.DOMAIN" Value="RS"/>
      <ItemData ItemOID="IT.RS.USUBJID" Value="CDISC001"/>
      <ItemData ItemOID="IT.RS.RSSEQ" Value="19"/>
      <ItemData ItemOID="IT.RS.RSTESTCD" Value="HAMD102"/>
      <ItemData ItemOID="IT.RS.RSTEST" Value="HAMD1-Feelings of Guilt"/>
      <ItemData ItemOID="IT.RS.RSCAT" Value="HAMD 17"/>
      <ItemData ItemOID="IT.RS.RSORRES" Value="Absent."/>
      <ItemData ItemOID="IT.RS.RSSTRESC" Value="0"/>
      <ItemData ItemOID="IT.RS.RSSTRESN" Value="0"/>
      <ItemData ItemOID="IT.RS.VISITNUM" Value="201"/>
      <ItemData ItemOID="IT.RS.VISIT" Value="EARLY DISCONTINUATION RETRIEVAL"/>
      <ItemData ItemOID="IT.RS.EPOCH" Value="TREATMENT"/>
      <ItemData ItemOID="IT.RS.RSDTC" Value="2013-05-20"/>
      <ItemData ItemOID="IT.RS.RSDY" Value="172"/>
      <ItemData ItemOID="IT.RS.RSEVLINT" Value="-P1W"/>
    </ItemGroupData>
    <ItemGroupData ItemGroupOID="IG.RS" data:ItemGroupDataSeq="20">
      <ItemData ItemOID="IT.RS.STUDYID" Value="CDISCPILOT01"/>
      <ItemData ItemOID="IT.RS.DOMAIN" Value="RS"/>
      <ItemData ItemOID="IT.RS.USUBJID" Value="CDISC001"/>
      <ItemData ItemOID="IT.RS.RSSEQ" Value="20"/>
      <ItemData ItemOID="IT.RS.RSTESTCD" Value="HAMD103"/>
      <ItemData ItemOID="IT.RS.RSTEST" Value="HAMD1-Suicide"/>
      <ItemData ItemOID="IT.RS.RSCAT" Value="HAMD 17"/>
      <ItemData ItemOID="IT.RS.RSORRES" Value="Absent."/>
      <ItemData ItemOID="IT.RS.RSSTRESC" Value="0"/>
      <ItemData ItemOID="IT.RS.RSSTRESN" Value="0"/>
      <ItemData ItemOID="IT.RS.VISITNUM" Value="201"/>
      <ItemData ItemOID="IT.RS.VISIT" Value="EARLY DISCONTINUATION RETRIEVAL"/>
      <ItemData ItemOID="IT.RS.EPOCH" Value="TREATMENT"/>
      <ItemData ItemOID="IT.RS.RSDTC" Value="2013-05-20"/>
      <ItemData ItemOID="IT.RS.RSDY" Value="172"/>
      <ItemData ItemOID="IT.RS.RSEVLINT" Value="-P1W"/>
    </ItemGroupData>
    <ItemGroupData ItemGroupOID="IG.RS" data:ItemGroupDataSeq="21">
      <ItemData ItemOID="IT.RS.STUDYID" Value="CDISCPILOT01"/>
      <ItemData ItemOID="IT.RS.DOMAIN" Value="RS"/>
      <ItemData ItemOID="IT.RS.USUBJID" Value="CDISC001"/>
      <ItemData ItemOID="IT.RS.RSSEQ" Value="21"/>
      <ItemData ItemOID="IT.RS.RSTESTCD" Value="HAMD104"/>
      <ItemData ItemOID="IT.RS.RSTEST" Value="HAMD1-Insomnia Early - Early Night"/>
      <ItemData ItemOID="IT.RS.RSCAT" Value="HAMD 17"/>
      <ItemData ItemOID="IT.RS.RSORRES" Value="No difficulty falling asleep."/>
      <ItemData ItemOID="IT.RS.RSSTRESC" Value="0"/>
      <ItemData ItemOID="IT.RS.RSSTRESN" Value="0"/>
      <ItemData ItemOID="IT.RS.VISITNUM" Value="201"/>
      <ItemData ItemOID="IT.RS.VISIT" Value="EARLY DISCONTINUATION RETRIEVAL"/>
      <ItemData ItemOID="IT.RS.EPOCH" Value="TREATMENT"/>
      <ItemData ItemOID="IT.RS.RSDTC" Value="2013-05-20"/>
      <ItemData ItemOID="IT.RS.RSDY" Value="172"/>
      <ItemData ItemOID="IT.RS.RSEVLINT" Value="-P1W"/>
    </ItemGroupData>
    <ItemGroupData ItemGroupOID="IG.RS" data:ItemGroupDataSeq="22">
      <ItemData ItemOID="IT.RS.STUDYID" Value="CDISCPILOT01"/>
      <ItemData ItemOID="IT.RS.DOMAIN" Value="RS"/>
      <ItemData ItemOID="IT.RS.USUBJID" Value="CDISC001"/>
      <ItemData ItemOID="IT.RS.RSSEQ" Value="22"/>
      <ItemData ItemOID="IT.RS.RSTESTCD" Value="HAMD105"/>
      <ItemData ItemOID="IT.RS.RSTEST" Value="HAMD1-Insomnia Middle - Middle Night"/>
      <ItemData ItemOID="IT.RS.RSCAT" Value="HAMD 17"/>
      <ItemData ItemOID="IT.RS.RSORRES" Value="No difficulty."/>
      <ItemData ItemOID="IT.RS.RSSTRESC" Value="0"/>
      <ItemData ItemOID="IT.RS.RSSTRESN" Value="0"/>
      <ItemData ItemOID="IT.RS.VISITNUM" Value="201"/>
      <ItemData ItemOID="IT.RS.VISIT" Value="EARLY DISCONTINUATION RETRIEVAL"/>
      <ItemData ItemOID="IT.RS.EPOCH" Value="TREATMENT"/>
      <ItemData ItemOID="IT.RS.RSDTC" Value="2013-05-20"/>
      <ItemData ItemOID="IT.RS.RSDY" Value="172"/>
      <ItemData ItemOID="IT.RS.RSEVLINT" Value="-P1W"/>
    </ItemGroupData>
    <ItemGroupData ItemGroupOID="IG.RS" data:ItemGroupDataSeq="23">
      <ItemData ItemOID="IT.RS.STUDYID" Value="CDISCPILOT01"/>
      <ItemData ItemOID="IT.RS.DOMAIN" Value="RS"/>
      <ItemData ItemOID="IT.RS.USUBJID" Value="CDISC001"/>
      <ItemData ItemOID="IT.RS.RSSEQ" Value="23"/>
      <ItemData ItemOID="IT.RS.RSTESTCD" Value="HAMD106"/>
      <ItemData ItemOID="IT.RS.RSTEST" Value="HAMD1-Insomnia Early Hours - Morning"/>
      <ItemData ItemOID="IT.RS.RSCAT" Value="HAMD 17"/>
      <ItemData ItemOID="IT.RS.RSORRES" Value="No difficulty."/>
      <ItemData ItemOID="IT.RS.RSSTRESC" Value="0"/>
      <ItemData ItemOID="IT.RS.RSSTRESN" Value="0"/>
      <ItemData ItemOID="IT.RS.VISITNUM" Value="201"/>
      <ItemData ItemOID="IT.RS.VISIT" Value="EARLY DISCONTINUATION RETRIEVAL"/>
      <ItemData ItemOID="IT.RS.EPOCH" Value="TREATMENT"/>
      <ItemData ItemOID="IT.RS.RSDTC" Value="2013-05-20"/>
      <ItemData ItemOID="IT.RS.RSDY" Value="172"/>
      <ItemData ItemOID="IT.RS.RSEVLINT" Value="-P1W"/>
    </ItemGroupData>
    <ItemGroupData ItemGroupOID="IG.RS" data:ItemGroupDataSeq="24">
      <ItemData ItemOID="IT.RS.STUDYID" Value="CDISCPILOT01"/>
      <ItemData ItemOID="IT.RS.DOMAIN" Value="RS"/>
      <ItemData ItemOID="IT.RS.USUBJID" Value="CDISC001"/>
      <ItemData ItemOID="IT.RS.RSSEQ" Value="24"/>
      <ItemData ItemOID="IT.RS.RSTESTCD" Value="HAMD107"/>
      <ItemData ItemOID="IT.RS.RSTEST" Value="HAMD1-Work and Activities"/>
      <ItemData ItemOID="IT.RS.RSCAT" Value="HAMD 17"/>
      <ItemData ItemOID="IT.RS.RSORRES" Value="Thoughts and feelings of incapacity, fatigue or weakness related to activities, work or hobbies."/>
      <ItemData ItemOID="IT.RS.RSSTRESC" Value="1"/>
      <ItemData ItemOID="IT.RS.RSSTRESN" Value="1"/>
      <ItemData ItemOID="IT.RS.VISITNUM" Value="201"/>
      <ItemData ItemOID="IT.RS.VISIT" Value="EARLY DISCONTINUATION RETRIEVAL"/>
      <ItemData ItemOID="IT.RS.EPOCH" Value="TREATMENT"/>
      <ItemData ItemOID="IT.RS.RSDTC" Value="2013-05-20"/>
      <ItemData ItemOID="IT.RS.RSDY" Value="172"/>
      <ItemData ItemOID="IT.RS.RSEVLINT" Value="-P1W"/>
    </ItemGroupData>
    <ItemGroupData ItemGroupOID="IG.RS" data:ItemGroupDataSeq="25">
      <ItemData ItemOID="IT.RS.STUDYID" Value="CDISCPILOT01"/>
      <ItemData ItemOID="IT.RS.DOMAIN" Value="RS"/>
      <ItemData ItemOID="IT.RS.USUBJID" Value="CDISC001"/>
      <ItemData ItemOID="IT.RS.RSSEQ" Value="25"/>
      <ItemData ItemOID="IT.RS.RSTESTCD" Value="HAMD108"/>
      <ItemData ItemOID="IT.RS.RSTEST" Value="HAMD1-Retardation"/>
      <ItemData ItemOID="IT.RS.RSCAT" Value="HAMD 17"/>
      <ItemData ItemOID="IT.RS.RSORRES" Value="Normal speech and thought."/>
      <ItemData ItemOID="IT.RS.RSSTRESC" Value="0"/>
      <ItemData ItemOID="IT.RS.RSSTRESN" Value="0"/>
      <ItemData ItemOID="IT.RS.VISITNUM" Value="201"/>
      <ItemData ItemOID="IT.RS.VISIT" Value="EARLY DISCONTINUATION RETRIEVAL"/>
      <ItemData ItemOID="IT.RS.EPOCH" Value="TREATMENT"/>
      <ItemData ItemOID="IT.RS.RSDTC" Value="2013-05-20"/>
      <ItemData ItemOID="IT.RS.RSDY" Value="172"/>
      <ItemData ItemOID="IT.RS.RSEVLINT" Value="-P1W"/>
    </ItemGroupData>
    <ItemGroupData ItemGroupOID="IG.RS" data:ItemGroupDataSeq="26">
      <ItemData ItemOID="IT.RS.STUDYID" Value="CDISCPILOT01"/>
      <ItemData ItemOID="IT.RS.DOMAIN" Value="RS"/>
      <ItemData ItemOID="IT.RS.USUBJID" Value="CDISC001"/>
      <ItemData ItemOID="IT.RS.RSSEQ" Value="26"/>
      <ItemData ItemOID="IT.RS.RSTESTCD" Value="HAMD109"/>
      <ItemData ItemOID="IT.RS.RSTEST" Value="HAMD1-Agitation"/>
      <ItemData ItemOID="IT.RS.RSCAT" Value="HAMD 17"/>
      <ItemData ItemOID="IT.RS.RSORRES" Value="None."/>
      <ItemData ItemOID="IT.RS.RSSTRESC" Value="0"/>
      <ItemData ItemOID="IT.RS.RSSTRESN" Value="0"/>
      <ItemData ItemOID="IT.RS.VISITNUM" Value="201"/>
      <ItemData ItemOID="IT.RS.VISIT" Value="EARLY DISCONTINUATION RETRIEVAL"/>
      <ItemData ItemOID="IT.RS.EPOCH" Value="TREATMENT"/>
      <ItemData ItemOID="IT.RS.RSDTC" Value="2013-05-20"/>
      <ItemData ItemOID="IT.RS.RSDY" Value="172"/>
      <ItemData ItemOID="IT.RS.RSEVLINT" Value="-P1W"/>
    </ItemGroupData>
    <ItemGroupData ItemGroupOID="IG.RS" data:ItemGroupDataSeq="27">
      <ItemData ItemOID="IT.RS.STUDYID" Value="CDISCPILOT01"/>
      <ItemData ItemOID="IT.RS.DOMAIN" Value="RS"/>
      <ItemData ItemOID="IT.RS.USUBJID" Value="CDISC001"/>
      <ItemData ItemOID="IT.RS.RSSEQ" Value="27"/>
      <ItemData ItemOID="IT.RS.RSTESTCD" Value="HAMD110"/>
      <ItemData ItemOID="IT.RS.RSTEST" Value="HAMD1-Anxiety Psychic"/>
      <ItemData ItemOID="IT.RS.RSCAT" Value="HAMD 17"/>
      <ItemData ItemOID="IT.RS.RSORRES" Value="No difficulty."/>
      <ItemData ItemOID="IT.RS.RSSTRESC" Value="0"/>
      <ItemData ItemOID="IT.RS.RSSTRESN" Value="0"/>
      <ItemData ItemOID="IT.RS.VISITNUM" Value="201"/>
      <ItemData ItemOID="IT.RS.VISIT" Value="EARLY DISCONTINUATION RETRIEVAL"/>
      <ItemData ItemOID="IT.RS.EPOCH" Value="TREATMENT"/>
      <ItemData ItemOID="IT.RS.RSDTC" Value="2013-05-20"/>
      <ItemData ItemOID="IT.RS.RSDY" Value="172"/>
      <ItemData ItemOID="IT.RS.RSEVLINT" Value="-P1W"/>
    </ItemGroupData>
    <ItemGroupData ItemGroupOID="IG.RS" data:ItemGroupDataSeq="28">
      <ItemData ItemOID="IT.RS.STUDYID" Value="CDISCPILOT01"/>
      <ItemData ItemOID="IT.RS.DOMAIN" Value="RS"/>
      <ItemData ItemOID="IT.RS.USUBJID" Value="CDISC001"/>
      <ItemData ItemOID="IT.RS.RSSEQ" Value="28"/>
      <ItemData ItemOID="IT.RS.RSTESTCD" Value="HAMD111"/>
      <ItemData ItemOID="IT.RS.RSTEST" Value="HAMD1-Anxiety Somatic"/>
      <ItemData ItemOID="IT.RS.RSCAT" Value="HAMD 17"/>
      <ItemData ItemOID="IT.RS.RSORRES" Value="Absent."/>
      <ItemData ItemOID="IT.RS.RSSTRESC" Value="0"/>
      <ItemData ItemOID="IT.RS.RSSTRESN" Value="0"/>
      <ItemData ItemOID="IT.RS.VISITNUM" Value="201"/>
      <ItemData ItemOID="IT.RS.VISIT" Value="EARLY DISCONTINUATION RETRIEVAL"/>
      <ItemData ItemOID="IT.RS.EPOCH" Value="TREATMENT"/>
      <ItemData ItemOID="IT.RS.RSDTC" Value="2013-05-20"/>
      <ItemData ItemOID="IT.RS.RSDY" Value="172"/>
      <ItemData ItemOID="IT.RS.RSEVLINT" Value="-P1W"/>
    </ItemGroupData>
    <ItemGroupData ItemGroupOID="IG.RS" data:ItemGroupDataSeq="29">
      <ItemData ItemOID="IT.RS.STUDYID" Value="CDISCPILOT01"/>
      <ItemData ItemOID="IT.RS.DOMAIN" Value="RS"/>
      <ItemData ItemOID="IT.RS.USUBJID" Value="CDISC001"/>
      <ItemData ItemOID="IT.RS.RSSEQ" Value="29"/>
      <ItemData ItemOID="IT.RS.RSTESTCD" Value="HAMD112"/>
      <ItemData ItemOID="IT.RS.RSTEST" Value="HAMD1-Somatic Symptoms GI"/>
      <ItemData ItemOID="IT.RS.RSCAT" Value="HAMD 17"/>
      <ItemData ItemOID="IT.RS.RSORRES" Value="Loss of appetite but eating without staff encouragement. Heavy feelings in abdomen."/>
      <ItemData ItemOID="IT.RS.RSSTRESC" Value="1"/>
      <ItemData ItemOID="IT.RS.RSSTRESN" Value="1"/>
      <ItemData ItemOID="IT.RS.VISITNUM" Value="201"/>
      <ItemData ItemOID="IT.RS.VISIT" Value="EARLY DISCONTINUATION RETRIEVAL"/>
      <ItemData ItemOID="IT.RS.EPOCH" Value="TREATMENT"/>
      <ItemData ItemOID="IT.RS.RSDTC" Value="2013-05-20"/>
      <ItemData ItemOID="IT.RS.RSDY" Value="172"/>
      <ItemData ItemOID="IT.RS.RSEVLINT" Value="-P1W"/>
    </ItemGroupData>
    <ItemGroupData ItemGroupOID="IG.RS" data:ItemGroupDataSeq="30">
      <ItemData ItemOID="IT.RS.STUDYID" Value="CDISCPILOT01"/>
      <ItemData ItemOID="IT.RS.DOMAIN" Value="RS"/>
      <ItemData ItemOID="IT.RS.USUBJID" Value="CDISC001"/>
      <ItemData ItemOID="IT.RS.RSSEQ" Value="30"/>
      <ItemData ItemOID="IT.RS.RSTESTCD" Value="HAMD113"/>
      <ItemData ItemOID="IT.RS.RSTEST" Value="HAMD1-General Somatic Symptoms"/>
      <ItemData ItemOID="IT.RS.RSCAT" Value="HAMD 17"/>
      <ItemData ItemOID="IT.RS.RSORRES" Value="Heaviness in limbs, back or head. Backaches, headaches, muscle aches. Loss of energy and fatigability."/>
      <ItemData ItemOID="IT.RS.RSSTRESC" Value="1"/>
      <ItemData ItemOID="IT.RS.RSSTRESN" Value="1"/>
      <ItemData ItemOID="IT.RS.VISITNUM" Value="201"/>
      <ItemData ItemOID="IT.RS.VISIT" Value="EARLY DISCONTINUATION RETRIEVAL"/>
      <ItemData ItemOID="IT.RS.EPOCH" Value="TREATMENT"/>
      <ItemData ItemOID="IT.RS.RSDTC" Value="2013-05-20"/>
      <ItemData ItemOID="IT.RS.RSDY" Value="172"/>
      <ItemData ItemOID="IT.RS.RSEVLINT" Value="-P1W"/>
    </ItemGroupData>
    <ItemGroupData ItemGroupOID="IG.RS" data:ItemGroupDataSeq="31">
      <ItemData ItemOID="IT.RS.STUDYID" Value="CDISCPILOT01"/>
      <ItemData ItemOID="IT.RS.DOMAIN" Value="RS"/>
      <ItemData ItemOID="IT.RS.USUBJID" Value="CDISC001"/>
      <ItemData ItemOID="IT.RS.RSSEQ" Value="31"/>
      <ItemData ItemOID="IT.RS.RSTESTCD" Value="HAMD114"/>
      <ItemData ItemOID="IT.RS.RSTEST" Value="HAMD1-Genital Symptoms"/>
      <ItemData ItemOID="IT.RS.RSCAT" Value="HAMD 17"/>
      <ItemData ItemOID="IT.RS.RSORRES" Value="Absent."/>
      <ItemData ItemOID="IT.RS.RSSTRESC" Value="1"/>
      <ItemData ItemOID="IT.RS.RSSTRESN" Value="1"/>
      <ItemData ItemOID="IT.RS.VISITNUM" Value="201"/>
      <ItemData ItemOID="IT.RS.VISIT" Value="EARLY DISCONTINUATION RETRIEVAL"/>
      <ItemData ItemOID="IT.RS.EPOCH" Value="TREATMENT"/>
      <ItemData ItemOID="IT.RS.RSDTC" Value="2013-05-20"/>
      <ItemData ItemOID="IT.RS.RSDY" Value="172"/>
      <ItemData ItemOID="IT.RS.RSEVLINT" Value="-P1W"/>
    </ItemGroupData>
    <ItemGroupData ItemGroupOID="IG.RS" data:ItemGroupDataSeq="32">
      <ItemData ItemOID="IT.RS.STUDYID" Value="CDISCPILOT01"/>
      <ItemData ItemOID="IT.RS.DOMAIN" Value="RS"/>
      <ItemData ItemOID="IT.RS.USUBJID" Value="CDISC001"/>
      <ItemData ItemOID="IT.RS.RSSEQ" Value="32"/>
      <ItemData ItemOID="IT.RS.RSTESTCD" Value="HAMD115"/>
      <ItemData ItemOID="IT.RS.RSTEST" Value="HAMD1-Hypochondriasis"/>
      <ItemData ItemOID="IT.RS.RSCAT" Value="HAMD 17"/>
      <ItemData ItemOID="IT.RS.RSORRES" Value="Not present."/>
      <ItemData ItemOID="IT.RS.RSSTRESC" Value="0"/>
      <ItemData ItemOID="IT.RS.RSSTRESN" Value="0"/>
      <ItemData ItemOID="IT.RS.VISITNUM" Value="201"/>
      <ItemData ItemOID="IT.RS.VISIT" Value="EARLY DISCONTINUATION RETRIEVAL"/>
      <ItemData ItemOID="IT.RS.EPOCH" Value="TREATMENT"/>
      <ItemData ItemOID="IT.RS.RSDTC" Value="2013-05-20"/>
      <ItemData ItemOID="IT.RS.RSDY" Value="172"/>
      <ItemData ItemOID="IT.RS.RSEVLINT" Value="-P1W"/>
    </ItemGroupData>
    <ItemGroupData ItemGroupOID="IG.RS" data:ItemGroupDataSeq="33">
      <ItemData ItemOID="IT.RS.STUDYID" Value="CDISCPILOT01"/>
      <ItemData ItemOID="IT.RS.DOMAIN" Value="RS"/>
      <ItemData ItemOID="IT.RS.USUBJID" Value="CDISC001"/>
      <ItemData ItemOID="IT.RS.RSSEQ" Value="33"/>
      <ItemData ItemOID="IT.RS.RSTESTCD" Value="HAMD116B"/>
      <ItemData ItemOID="IT.RS.RSTEST" Value="HAMD1-Loss of WT According to WK Meas"/>
      <ItemData ItemOID="IT.RS.RSCAT" Value="HAMD 17"/>
      <ItemData ItemOID="IT.RS.RSORRES" Value="Probable weight loss associated with present illness."/>
      <ItemData ItemOID="IT.RS.RSSTRESC" Value="1"/>
      <ItemData ItemOID="IT.RS.RSSTRESN" Value="1"/>
      <ItemData ItemOID="IT.RS.VISITNUM" Value="201"/>
      <ItemData ItemOID="IT.RS.VISIT" Value="EARLY DISCONTINUATION RETRIEVAL"/>
      <ItemData ItemOID="IT.RS.EPOCH" Value="TREATMENT"/>
      <ItemData ItemOID="IT.RS.RSDTC" Value="2013-05-20"/>
      <ItemData ItemOID="IT.RS.RSDY" Value="172"/>
      <ItemData ItemOID="IT.RS.RSEVLINT" Value="-P1W"/>
    </ItemGroupData>
    <ItemGroupData ItemGroupOID="IG.RS" data:ItemGroupDataSeq="34">
      <ItemData ItemOID="IT.RS.STUDYID" Value="CDISCPILOT01"/>
      <ItemData ItemOID="IT.RS.DOMAIN" Value="RS"/>
      <ItemData ItemOID="IT.RS.USUBJID" Value="CDISC001"/>
      <ItemData ItemOID="IT.RS.RSSEQ" Value="34"/>
      <ItemData ItemOID="IT.RS.RSTESTCD" Value="HAMD117"/>
      <ItemData ItemOID="IT.RS.RSTEST" Value="HAMD1-Insight"/>
      <ItemData ItemOID="IT.RS.RSCAT" Value="HAMD 17"/>
      <ItemData ItemOID="IT.RS.RSORRES" Value="Acknowledges being depressed and ill."/>
      <ItemData ItemOID="IT.RS.RSSTRESC" Value="0"/>
      <ItemData ItemOID="IT.RS.RSSTRESN" Value="0"/>
      <ItemData ItemOID="IT.RS.VISITNUM" Value="201"/>
      <ItemData ItemOID="IT.RS.VISIT" Value="EARLY DISCONTINUATION RETRIEVAL"/>
      <ItemData ItemOID="IT.RS.EPOCH" Value="TREATMENT"/>
      <ItemData ItemOID="IT.RS.RSDTC" Value="2013-05-20"/>
      <ItemData ItemOID="IT.RS.RSDY" Value="172"/>
      <ItemData ItemOID="IT.RS.RSEVLINT" Value="-P1W"/>
    </ItemGroupData>
    <ItemGroupData ItemGroupOID="IG.RS" data:ItemGroupDataSeq="35">
      <ItemData ItemOID="IT.RS.STUDYID" Value="CDISCPILOT01"/>
      <ItemData ItemOID="IT.RS.DOMAIN" Value="RS"/>
      <ItemData ItemOID="IT.RS.USUBJID" Value="CDISC001"/>
      <ItemData ItemOID="IT.RS.RSSEQ" Value="35"/>
      <ItemData ItemOID="IT.RS.RSTESTCD" Value="HAMD118"/>
      <ItemData ItemOID="IT.RS.RSTEST" Value="HAMD1-Total Score"/>
      <ItemData ItemOID="IT.RS.RSCAT" Value="HAMD 17"/>
      <ItemData ItemOID="IT.RS.RSORRES" Value="5"/>
      <ItemData ItemOID="IT.RS.RSSTRESC" Value="5"/>
      <ItemData ItemOID="IT.RS.RSSTRESN" Value="5"/>
      <ItemData ItemOID="IT.RS.VISITNUM" Value="201"/>
      <ItemData ItemOID="IT.RS.VISIT" Value="EARLY DISCONTINUATION RETRIEVAL"/>
      <ItemData ItemOID="IT.RS.EPOCH" Value="TREATMENT"/>
      <ItemData ItemOID="IT.RS.RSDTC" Value="2013-05-20"/>
      <ItemData ItemOID="IT.RS.RSDY" Value="172"/>
      <ItemData ItemOID="IT.RS.RSEVLINT" Value="-P1W"/>
    </ItemGroupData>
    <ItemGroupData ItemGroupOID="IG.RS" data:ItemGroupDataSeq="36">
      <ItemData ItemOID="IT.RS.STUDYID" Value="CDISCPILOT01"/>
      <ItemData ItemOID="IT.RS.DOMAIN" Value="RS"/>
      <ItemData ItemOID="IT.RS.USUBJID" Value="CDISC001"/>
      <ItemData ItemOID="IT.RS.RSSEQ" Value="36"/>
      <ItemData ItemOID="IT.RS.RSTESTCD" Value="HAMD118"/>
      <ItemData ItemOID="IT.RS.RSTEST" Value="HAMD1-Total Score"/>
      <ItemData ItemOID="IT.RS.RSCAT" Value="HAMD 17"/>
      <ItemData ItemOID="IT.RS.RSORRES" Value="2"/>
      <ItemData ItemOID="IT.RS.RSSTRESC" Value="2"/>
      <ItemData ItemOID="IT.RS.RSSTRESN" Value="2"/>
      <ItemData ItemOID="IT.RS.RSLOBXFL" Value="Y"/>
      <ItemData ItemOID="IT.RS.VISITNUM" Value="3"/>
      <ItemData ItemOID="IT.RS.VISIT" Value="BASELINE"/>
      <ItemData ItemOID="IT.RS.EPOCH" Value="SCREENING"/>
      <ItemData ItemOID="IT.RS.RSDTC" Value="2012-11-30"/>
      <ItemData ItemOID="IT.RS.RSDY" Value="1"/>
      <ItemData ItemOID="IT.RS.RSEVLINT" Value="-P1W"/>
    </ItemGroupData>
    <ItemGroupData ItemGroupOID="IG.RS" data:ItemGroupDataSeq="37">
      <ItemData ItemOID="IT.RS.STUDYID" Value="CDISCPILOT01"/>
      <ItemData ItemOID="IT.RS.DOMAIN" Value="RS"/>
      <ItemData ItemOID="IT.RS.USUBJID" Value="CDISC002"/>
      <ItemData ItemOID="IT.RS.RSSEQ" Value="1"/>
      <ItemData ItemOID="IT.RS.RSTESTCD" Value="HAMD101"/>
      <ItemData ItemOID="IT.RS.RSTEST" Value="HAMD1-Depressed Mood"/>
      <ItemData ItemOID="IT.RS.RSCAT" Value="HAMD 17"/>
      <ItemData ItemOID="IT.RS.RSORRES" Value="These feeling states indicated only on questioning."/>
      <ItemData ItemOID="IT.RS.RSSTRESC" Value="1"/>
      <ItemData ItemOID="IT.RS.RSSTRESN" Value="1"/>
      <ItemData ItemOID="IT.RS.RSLOBXFL" Value="Y"/>
      <ItemData ItemOID="IT.RS.VISITNUM" Value="3"/>
      <ItemData ItemOID="IT.RS.VISIT" Value="BASELINE"/>
      <ItemData ItemOID="IT.RS.EPOCH" Value="SCREENING"/>
      <ItemData ItemOID="IT.RS.RSDTC" Value="2012-11-15"/>
      <ItemData ItemOID="IT.RS.RSDY" Value="1"/>
      <ItemData ItemOID="IT.RS.RSEVLINT" Value="-P1W"/>
    </ItemGroupData>
    <ItemGroupData ItemGroupOID="IG.RS" data:ItemGroupDataSeq="38">
      <ItemData ItemOID="IT.RS.STUDYID" Value="CDISCPILOT01"/>
      <ItemData ItemOID="IT.RS.DOMAIN" Value="RS"/>
      <ItemData ItemOID="IT.RS.USUBJID" Value="CDISC002"/>
      <ItemData ItemOID="IT.RS.RSSEQ" Value="2"/>
      <ItemData ItemOID="IT.RS.RSTESTCD" Value="HAMD102"/>
      <ItemData ItemOID="IT.RS.RSTEST" Value="HAMD1-Feelings of Guilt"/>
      <ItemData ItemOID="IT.RS.RSCAT" Value="HAMD 17"/>
      <ItemData ItemOID="IT.RS.RSORRES" Value="Absent."/>
      <ItemData ItemOID="IT.RS.RSSTRESC" Value="0"/>
      <ItemData ItemOID="IT.RS.RSSTRESN" Value="0"/>
      <ItemData ItemOID="IT.RS.RSLOBXFL" Value="Y"/>
      <ItemData ItemOID="IT.RS.VISITNUM" Value="3"/>
      <ItemData ItemOID="IT.RS.VISIT" Value="BASELINE"/>
      <ItemData ItemOID="IT.RS.EPOCH" Value="SCREENING"/>
      <ItemData ItemOID="IT.RS.RSDTC" Value="2012-11-15"/>
      <ItemData ItemOID="IT.RS.RSDY" Value="1"/>
      <ItemData ItemOID="IT.RS.RSEVLINT" Value="-P1W"/>
    </ItemGroupData>
    <ItemGroupData ItemGroupOID="IG.RS" data:ItemGroupDataSeq="39">
      <ItemData ItemOID="IT.RS.STUDYID" Value="CDISCPILOT01"/>
      <ItemData ItemOID="IT.RS.DOMAIN" Value="RS"/>
      <ItemData ItemOID="IT.RS.USUBJID" Value="CDISC002"/>
      <ItemData ItemOID="IT.RS.RSSEQ" Value="3"/>
      <ItemData ItemOID="IT.RS.RSTESTCD" Value="HAMD103"/>
      <ItemData ItemOID="IT.RS.RSTEST" Value="HAMD1-Suicide"/>
      <ItemData ItemOID="IT.RS.RSCAT" Value="HAMD 17"/>
      <ItemData ItemOID="IT.RS.RSORRES" Value="Feels life is not worth living."/>
      <ItemData ItemOID="IT.RS.RSSTRESC" Value="1"/>
      <ItemData ItemOID="IT.RS.RSSTRESN" Value="1"/>
      <ItemData ItemOID="IT.RS.RSLOBXFL" Value="Y"/>
      <ItemData ItemOID="IT.RS.VISITNUM" Value="3"/>
      <ItemData ItemOID="IT.RS.VISIT" Value="BASELINE"/>
      <ItemData ItemOID="IT.RS.EPOCH" Value="SCREENING"/>
      <ItemData ItemOID="IT.RS.RSDTC" Value="2012-11-15"/>
      <ItemData ItemOID="IT.RS.RSDY" Value="1"/>
      <ItemData ItemOID="IT.RS.RSEVLINT" Value="-P1W"/>
    </ItemGroupData>
    <ItemGroupData ItemGroupOID="IG.RS" data:ItemGroupDataSeq="40">
      <ItemData ItemOID="IT.RS.STUDYID" Value="CDISCPILOT01"/>
      <ItemData ItemOID="IT.RS.DOMAIN" Value="RS"/>
      <ItemData ItemOID="IT.RS.USUBJID" Value="CDISC002"/>
      <ItemData ItemOID="IT.RS.RSSEQ" Value="4"/>
      <ItemData ItemOID="IT.RS.RSTESTCD" Value="HAMD104"/>
      <ItemData ItemOID="IT.RS.RSTEST" Value="HAMD1-Insomnia Early - Early Night"/>
      <ItemData ItemOID="IT.RS.RSCAT" Value="HAMD 17"/>
      <ItemData ItemOID="IT.RS.RSORRES" Value="Complains of occasional difficulty falling asleep, i.e. more than 1/2 hour"/>
      <ItemData ItemOID="IT.RS.RSSTRESC" Value="1"/>
      <ItemData ItemOID="IT.RS.RSSTRESN" Value="1"/>
      <ItemData ItemOID="IT.RS.RSLOBXFL" Value="Y"/>
      <ItemData ItemOID="IT.RS.VISITNUM" Value="3"/>
      <ItemData ItemOID="IT.RS.VISIT" Value="BASELINE"/>
      <ItemData ItemOID="IT.RS.EPOCH" Value="SCREENING"/>
      <ItemData ItemOID="IT.RS.RSDTC" Value="2012-11-15"/>
      <ItemData ItemOID="IT.RS.RSDY" Value="1"/>
      <ItemData ItemOID="IT.RS.RSEVLINT" Value="-P1W"/>
    </ItemGroupData>
    <ItemGroupData ItemGroupOID="IG.RS" data:ItemGroupDataSeq="41">
      <ItemData ItemOID="IT.RS.STUDYID" Value="CDISCPILOT01"/>
      <ItemData ItemOID="IT.RS.DOMAIN" Value="RS"/>
      <ItemData ItemOID="IT.RS.USUBJID" Value="CDISC002"/>
      <ItemData ItemOID="IT.RS.RSSEQ" Value="5"/>
      <ItemData ItemOID="IT.RS.RSTESTCD" Value="HAMD105"/>
      <ItemData ItemOID="IT.RS.RSTEST" Value="HAMD1-Insomnia Middle - Middle Night"/>
      <ItemData ItemOID="IT.RS.RSCAT" Value="HAMD 17"/>
      <ItemData ItemOID="IT.RS.RSORRES" Value="Patient complains of being restless and disturbed during the night."/>
      <ItemData ItemOID="IT.RS.RSSTRESC" Value="1"/>
      <ItemData ItemOID="IT.RS.RSSTRESN" Value="1"/>
      <ItemData ItemOID="IT.RS.RSLOBXFL" Value="Y"/>
      <ItemData ItemOID="IT.RS.VISITNUM" Value="3"/>
      <ItemData ItemOID="IT.RS.VISIT" Value="BASELINE"/>
      <ItemData ItemOID="IT.RS.EPOCH" Value="SCREENING"/>
      <ItemData ItemOID="IT.RS.RSDTC" Value="2012-11-15"/>
      <ItemData ItemOID="IT.RS.RSDY" Value="1"/>
      <ItemData ItemOID="IT.RS.RSEVLINT" Value="-P1W"/>
    </ItemGroupData>
    <ItemGroupData ItemGroupOID="IG.RS" data:ItemGroupDataSeq="42">
      <ItemData ItemOID="IT.RS.STUDYID" Value="CDISCPILOT01"/>
      <ItemData ItemOID="IT.RS.DOMAIN" Value="RS"/>
      <ItemData ItemOID="IT.RS.USUBJID" Value="CDISC002"/>
      <ItemData ItemOID="IT.RS.RSSEQ" Value="6"/>
      <ItemData ItemOID="IT.RS.RSTESTCD" Value="HAMD106"/>
      <ItemData ItemOID="IT.RS.RSTEST" Value="HAMD1-Insomnia Early Hours - Morning"/>
      <ItemData ItemOID="IT.RS.RSCAT" Value="HAMD 17"/>
      <ItemData ItemOID="IT.RS.RSORRES" Value="Waking in early hours of the morning but goes back to sleep."/>
      <ItemData ItemOID="IT.RS.RSSTRESC" Value="1"/>
      <ItemData ItemOID="IT.RS.RSSTRESN" Value="1"/>
      <ItemData ItemOID="IT.RS.RSLOBXFL" Value="Y"/>
      <ItemData ItemOID="IT.RS.VISITNUM" Value="3"/>
      <ItemData ItemOID="IT.RS.VISIT" Value="BASELINE"/>
      <ItemData ItemOID="IT.RS.EPOCH" Value="SCREENING"/>
      <ItemData ItemOID="IT.RS.RSDTC" Value="2012-11-15"/>
      <ItemData ItemOID="IT.RS.RSDY" Value="1"/>
      <ItemData ItemOID="IT.RS.RSEVLINT" Value="-P1W"/>
    </ItemGroupData>
    <ItemGroupData ItemGroupOID="IG.RS" data:ItemGroupDataSeq="43">
      <ItemData ItemOID="IT.RS.STUDYID" Value="CDISCPILOT01"/>
      <ItemData ItemOID="IT.RS.DOMAIN" Value="RS"/>
      <ItemData ItemOID="IT.RS.USUBJID" Value="CDISC002"/>
      <ItemData ItemOID="IT.RS.RSSEQ" Value="7"/>
      <ItemData ItemOID="IT.RS.RSTESTCD" Value="HAMD107"/>
      <ItemData ItemOID="IT.RS.RSTEST" Value="HAMD1-Work and Activities"/>
      <ItemData ItemOID="IT.RS.RSCAT" Value="HAMD 17"/>
      <ItemData ItemOID="IT.RS.RSORRES" Value="Thoughts and feelings of incapacity, fatigue or weakness related to activities, work or hobbies."/>
      <ItemData ItemOID="IT.RS.RSSTRESC" Value="1"/>
      <ItemData ItemOID="IT.RS.RSSTRESN" Value="1"/>
      <ItemData ItemOID="IT.RS.RSLOBXFL" Value="Y"/>
      <ItemData ItemOID="IT.RS.VISITNUM" Value="3"/>
      <ItemData ItemOID="IT.RS.VISIT" Value="BASELINE"/>
      <ItemData ItemOID="IT.RS.EPOCH" Value="SCREENING"/>
      <ItemData ItemOID="IT.RS.RSDTC" Value="2012-11-15"/>
      <ItemData ItemOID="IT.RS.RSDY" Value="1"/>
      <ItemData ItemOID="IT.RS.RSEVLINT" Value="-P1W"/>
    </ItemGroupData>
    <ItemGroupData ItemGroupOID="IG.RS" data:ItemGroupDataSeq="44">
      <ItemData ItemOID="IT.RS.STUDYID" Value="CDISCPILOT01"/>
      <ItemData ItemOID="IT.RS.DOMAIN" Value="RS"/>
      <ItemData ItemOID="IT.RS.USUBJID" Value="CDISC002"/>
      <ItemData ItemOID="IT.RS.RSSEQ" Value="8"/>
      <ItemData ItemOID="IT.RS.RSTESTCD" Value="HAMD108"/>
      <ItemData ItemOID="IT.RS.RSTEST" Value="HAMD1-Retardation"/>
      <ItemData ItemOID="IT.RS.RSCAT" Value="HAMD 17"/>
      <ItemData ItemOID="IT.RS.RSORRES" Value="Slight retardation during the interview."/>
      <ItemData ItemOID="IT.RS.RSSTRESC" Value="1"/>
      <ItemData ItemOID="IT.RS.RSSTRESN" Value="1"/>
      <ItemData ItemOID="IT.RS.RSLOBXFL" Value="Y"/>
      <ItemData ItemOID="IT.RS.VISITNUM" Value="3"/>
      <ItemData ItemOID="IT.RS.VISIT" Value="BASELINE"/>
      <ItemData ItemOID="IT.RS.EPOCH" Value="SCREENING"/>
      <ItemData ItemOID="IT.RS.RSDTC" Value="2012-11-15"/>
      <ItemData ItemOID="IT.RS.RSDY" Value="1"/>
      <ItemData ItemOID="IT.RS.RSEVLINT" Value="-P1W"/>
    </ItemGroupData>
    <ItemGroupData ItemGroupOID="IG.RS" data:ItemGroupDataSeq="45">
      <ItemData ItemOID="IT.RS.STUDYID" Value="CDISCPILOT01"/>
      <ItemData ItemOID="IT.RS.DOMAIN" Value="RS"/>
      <ItemData ItemOID="IT.RS.USUBJID" Value="CDISC002"/>
      <ItemData ItemOID="IT.RS.RSSEQ" Value="9"/>
      <ItemData ItemOID="IT.RS.RSTESTCD" Value="HAMD109"/>
      <ItemData ItemOID="IT.RS.RSTEST" Value="HAMD1-Agitation"/>
      <ItemData ItemOID="IT.RS.RSCAT" Value="HAMD 17"/>
      <ItemData ItemOID="IT.RS.RSORRES" Value="None."/>
      <ItemData ItemOID="IT.RS.RSSTRESC" Value="0"/>
      <ItemData ItemOID="IT.RS.RSSTRESN" Value="0"/>
      <ItemData ItemOID="IT.RS.RSLOBXFL" Value="Y"/>
      <ItemData ItemOID="IT.RS.VISITNUM" Value="3"/>
      <ItemData ItemOID="IT.RS.VISIT" Value="BASELINE"/>
      <ItemData ItemOID="IT.RS.EPOCH" Value="SCREENING"/>
      <ItemData ItemOID="IT.RS.RSDTC" Value="2012-11-15"/>
      <ItemData ItemOID="IT.RS.RSDY" Value="1"/>
      <ItemData ItemOID="IT.RS.RSEVLINT" Value="-P1W"/>
    </ItemGroupData>
    <ItemGroupData ItemGroupOID="IG.RS" data:ItemGroupDataSeq="46">
      <ItemData ItemOID="IT.RS.STUDYID" Value="CDISCPILOT01"/>
      <ItemData ItemOID="IT.RS.DOMAIN" Value="RS"/>
      <ItemData ItemOID="IT.RS.USUBJID" Value="CDISC002"/>
      <ItemData ItemOID="IT.RS.RSSEQ" Value="10"/>
      <ItemData ItemOID="IT.RS.RSTESTCD" Value="HAMD110"/>
      <ItemData ItemOID="IT.RS.RSTEST" Value="HAMD1-Anxiety Psychic"/>
      <ItemData ItemOID="IT.RS.RSCAT" Value="HAMD 17"/>
      <ItemData ItemOID="IT.RS.RSORRES" Value="Subjective tension and irritability."/>
      <ItemData ItemOID="IT.RS.RSSTRESC" Value="1"/>
      <ItemData ItemOID="IT.RS.RSSTRESN" Value="1"/>
      <ItemData ItemOID="IT.RS.RSLOBXFL" Value="Y"/>
      <ItemData ItemOID="IT.RS.VISITNUM" Value="3"/>
      <ItemData ItemOID="IT.RS.VISIT" Value="BASELINE"/>
      <ItemData ItemOID="IT.RS.EPOCH" Value="SCREENING"/>
      <ItemData ItemOID="IT.RS.RSDTC" Value="2012-11-15"/>
      <ItemData ItemOID="IT.RS.RSDY" Value="1"/>
      <ItemData ItemOID="IT.RS.RSEVLINT" Value="-P1W"/>
    </ItemGroupData>
    <ItemGroupData ItemGroupOID="IG.RS" data:ItemGroupDataSeq="47">
      <ItemData ItemOID="IT.RS.STUDYID" Value="CDISCPILOT01"/>
      <ItemData ItemOID="IT.RS.DOMAIN" Value="RS"/>
      <ItemData ItemOID="IT.RS.USUBJID" Value="CDISC002"/>
      <ItemData ItemOID="IT.RS.RSSEQ" Value="11"/>
      <ItemData ItemOID="IT.RS.RSTESTCD" Value="HAMD111"/>
      <ItemData ItemOID="IT.RS.RSTEST" Value="HAMD1-Anxiety Somatic"/>
      <ItemData ItemOID="IT.RS.RSCAT" Value="HAMD 17"/>
      <ItemData ItemOID="IT.RS.RSORRES" Value="Mild."/>
      <ItemData ItemOID="IT.RS.RSSTRESC" Value="1"/>
      <ItemData ItemOID="IT.RS.RSSTRESN" Value="1"/>
      <ItemData ItemOID="IT.RS.RSLOBXFL" Value="Y"/>
      <ItemData ItemOID="IT.RS.VISITNUM" Value="3"/>
      <ItemData ItemOID="IT.RS.VISIT" Value="BASELINE"/>
      <ItemData ItemOID="IT.RS.EPOCH" Value="SCREENING"/>
      <ItemData ItemOID="IT.RS.RSDTC" Value="2012-11-15"/>
      <ItemData ItemOID="IT.RS.RSDY" Value="1"/>
      <ItemData ItemOID="IT.RS.RSEVLINT" Value="-P1W"/>
    </ItemGroupData>
    <ItemGroupData ItemGroupOID="IG.RS" data:ItemGroupDataSeq="48">
      <ItemData ItemOID="IT.RS.STUDYID" Value="CDISCPILOT01"/>
      <ItemData ItemOID="IT.RS.DOMAIN" Value="RS"/>
      <ItemData ItemOID="IT.RS.USUBJID" Value="CDISC002"/>
      <ItemData ItemOID="IT.RS.RSSEQ" Value="12"/>
      <ItemData ItemOID="IT.RS.RSTESTCD" Value="HAMD112"/>
      <ItemData ItemOID="IT.RS.RSTEST" Value="HAMD1-Somatic Symptoms GI"/>
      <ItemData ItemOID="IT.RS.RSCAT" Value="HAMD 17"/>
      <ItemData ItemOID="IT.RS.RSORRES" Value="Loss of appetite but eating without staff encouragement. Heavy feelings in abdomen."/>
      <ItemData ItemOID="IT.RS.RSSTRESC" Value="1"/>
      <ItemData ItemOID="IT.RS.RSSTRESN" Value="1"/>
      <ItemData ItemOID="IT.RS.RSLOBXFL" Value="Y"/>
      <ItemData ItemOID="IT.RS.VISITNUM" Value="3"/>
      <ItemData ItemOID="IT.RS.VISIT" Value="BASELINE"/>
      <ItemData ItemOID="IT.RS.EPOCH" Value="SCREENING"/>
      <ItemData ItemOID="IT.RS.RSDTC" Value="2012-11-15"/>
      <ItemData ItemOID="IT.RS.RSDY" Value="1"/>
      <ItemData ItemOID="IT.RS.RSEVLINT" Value="-P1W"/>
    </ItemGroupData>
    <ItemGroupData ItemGroupOID="IG.RS" data:ItemGroupDataSeq="49">
      <ItemData ItemOID="IT.RS.STUDYID" Value="CDISCPILOT01"/>
      <ItemData ItemOID="IT.RS.DOMAIN" Value="RS"/>
      <ItemData ItemOID="IT.RS.USUBJID" Value="CDISC002"/>
      <ItemData ItemOID="IT.RS.RSSEQ" Value="13"/>
      <ItemData ItemOID="IT.RS.RSTESTCD" Value="HAMD113"/>
      <ItemData ItemOID="IT.RS.RSTEST" Value="HAMD1-General Somatic Symptoms"/>
      <ItemData ItemOID="IT.RS.RSCAT" Value="HAMD 17"/>
      <ItemData ItemOID="IT.RS.RSORRES" Value="Heaviness in limbs, back or head. Backaches, headaches, muscle aches. Loss of energy and fatigability."/>
      <ItemData ItemOID="IT.RS.RSSTRESC" Value="1"/>
      <ItemData ItemOID="IT.RS.RSSTRESN" Value="1"/>
      <ItemData ItemOID="IT.RS.RSLOBXFL" Value="Y"/>
      <ItemData ItemOID="IT.RS.VISITNUM" Value="3"/>
      <ItemData ItemOID="IT.RS.VISIT" Value="BASELINE"/>
      <ItemData ItemOID="IT.RS.EPOCH" Value="SCREENING"/>
      <ItemData ItemOID="IT.RS.RSDTC" Value="2012-11-15"/>
      <ItemData ItemOID="IT.RS.RSDY" Value="1"/>
      <ItemData ItemOID="IT.RS.RSEVLINT" Value="-P1W"/>
    </ItemGroupData>
    <ItemGroupData ItemGroupOID="IG.RS" data:ItemGroupDataSeq="50">
      <ItemData ItemOID="IT.RS.STUDYID" Value="CDISCPILOT01"/>
      <ItemData ItemOID="IT.RS.DOMAIN" Value="RS"/>
      <ItemData ItemOID="IT.RS.USUBJID" Value="CDISC002"/>
      <ItemData ItemOID="IT.RS.RSSEQ" Value="14"/>
      <ItemData ItemOID="IT.RS.RSTESTCD" Value="HAMD114"/>
      <ItemData ItemOID="IT.RS.RSTEST" Value="HAMD1-Genital Symptoms"/>
      <ItemData ItemOID="IT.RS.RSCAT" Value="HAMD 17"/>
      <ItemData ItemOID="IT.RS.RSORRES" Value="Mild."/>
      <ItemData ItemOID="IT.RS.RSSTRESC" Value="1"/>
      <ItemData ItemOID="IT.RS.RSSTRESN" Value="1"/>
      <ItemData ItemOID="IT.RS.RSLOBXFL" Value="Y"/>
      <ItemData ItemOID="IT.RS.VISITNUM" Value="3"/>
      <ItemData ItemOID="IT.RS.VISIT" Value="BASELINE"/>
      <ItemData ItemOID="IT.RS.EPOCH" Value="SCREENING"/>
      <ItemData ItemOID="IT.RS.RSDTC" Value="2012-11-15"/>
      <ItemData ItemOID="IT.RS.RSDY" Value="1"/>
      <ItemData ItemOID="IT.RS.RSEVLINT" Value="-P1W"/>
    </ItemGroupData>
    <ItemGroupData ItemGroupOID="IG.RS" data:ItemGroupDataSeq="51">
      <ItemData ItemOID="IT.RS.STUDYID" Value="CDISCPILOT01"/>
      <ItemData ItemOID="IT.RS.DOMAIN" Value="RS"/>
      <ItemData ItemOID="IT.RS.USUBJID" Value="CDISC002"/>
      <ItemData ItemOID="IT.RS.RSSEQ" Value="16"/>
      <ItemData ItemOID="IT.RS.RSTESTCD" Value="HAMD116B"/>
      <ItemData ItemOID="IT.RS.RSTEST" Value="HAMD1-Loss of WT According to WK Meas"/>
      <ItemData ItemOID="IT.RS.RSCAT" Value="HAMD 17"/>
      <ItemData ItemOID="IT.RS.RSORRES" Value="Probable weight loss associated with present illness."/>
      <ItemData ItemOID="IT.RS.RSSTRESC" Value="1"/>
      <ItemData ItemOID="IT.RS.RSSTRESN" Value="1"/>
      <ItemData ItemOID="IT.RS.RSLOBXFL" Value="Y"/>
      <ItemData ItemOID="IT.RS.VISITNUM" Value="3"/>
      <ItemData ItemOID="IT.RS.VISIT" Value="BASELINE"/>
      <ItemData ItemOID="IT.RS.EPOCH" Value="SCREENING"/>
      <ItemData ItemOID="IT.RS.RSDTC" Value="2012-11-15"/>
      <ItemData ItemOID="IT.RS.RSDY" Value="1"/>
      <ItemData ItemOID="IT.RS.RSEVLINT" Value="-P1W"/>
    </ItemGroupData>
    <ItemGroupData ItemGroupOID="IG.RS" data:ItemGroupDataSeq="52">
      <ItemData ItemOID="IT.RS.STUDYID" Value="CDISCPILOT01"/>
      <ItemData ItemOID="IT.RS.DOMAIN" Value="RS"/>
      <ItemData ItemOID="IT.RS.USUBJID" Value="CDISC002"/>
      <ItemData ItemOID="IT.RS.RSSEQ" Value="17"/>
      <ItemData ItemOID="IT.RS.RSTESTCD" Value="HAMD117"/>
      <ItemData ItemOID="IT.RS.RSTEST" Value="HAMD1-Insight"/>
      <ItemData ItemOID="IT.RS.RSCAT" Value="HAMD 17"/>
      <ItemData ItemOID="IT.RS.RSORRES" Value="Acknowledges illness but attributes cause to bad food, climate, overwork, virus, need for rest, etc."/>
      <ItemData ItemOID="IT.RS.RSSTRESC" Value="1"/>
      <ItemData ItemOID="IT.RS.RSSTRESN" Value="1"/>
      <ItemData ItemOID="IT.RS.RSLOBXFL" Value="Y"/>
      <ItemData ItemOID="IT.RS.VISITNUM" Value="3"/>
      <ItemData ItemOID="IT.RS.VISIT" Value="BASELINE"/>
      <ItemData ItemOID="IT.RS.EPOCH" Value="SCREENING"/>
      <ItemData ItemOID="IT.RS.RSDTC" Value="2012-11-15"/>
      <ItemData ItemOID="IT.RS.RSDY" Value="1"/>
      <ItemData ItemOID="IT.RS.RSEVLINT" Value="-P1W"/>
    </ItemGroupData>
    <ItemGroupData ItemGroupOID="IG.RS" data:ItemGroupDataSeq="53">
      <ItemData ItemOID="IT.RS.STUDYID" Value="CDISCPILOT01"/>
      <ItemData ItemOID="IT.RS.DOMAIN" Value="RS"/>
      <ItemData ItemOID="IT.RS.USUBJID" Value="CDISC002"/>
      <ItemData ItemOID="IT.RS.RSSEQ" Value="18"/>
      <ItemData ItemOID="IT.RS.RSTESTCD" Value="HAMD118"/>
      <ItemData ItemOID="IT.RS.RSTEST" Value="HAMD1-Total Score"/>
      <ItemData ItemOID="IT.RS.RSCAT" Value="HAMD 17"/>
      <ItemData ItemOID="IT.RS.RSORRES" Value="15"/>
      <ItemData ItemOID="IT.RS.RSSTRESC" Value="15"/>
      <ItemData ItemOID="IT.RS.RSSTRESN" Value="15"/>
      <ItemData ItemOID="IT.RS.RSLOBXFL" Value="Y"/>
      <ItemData ItemOID="IT.RS.VISITNUM" Value="3"/>
      <ItemData ItemOID="IT.RS.VISIT" Value="BASELINE"/>
      <ItemData ItemOID="IT.RS.EPOCH" Value="SCREENING"/>
      <ItemData ItemOID="IT.RS.RSDTC" Value="2012-11-15"/>
      <ItemData ItemOID="IT.RS.RSDY" Value="1"/>
      <ItemData ItemOID="IT.RS.RSEVLINT" Value="-P1W"/>
    </ItemGroupData>
    <ItemGroupData ItemGroupOID="IG.RS" data:ItemGroupDataSeq="54">
      <ItemData ItemOID="IT.RS.STUDYID" Value="CDISCPILOT01"/>
      <ItemData ItemOID="IT.RS.DOMAIN" Value="RS"/>
      <ItemData ItemOID="IT.RS.USUBJID" Value="CDISC003"/>
      <ItemData ItemOID="IT.RS.RSSEQ" Value="1"/>
      <ItemData ItemOID="IT.RS.RSTESTCD" Value="HAMD102"/>
      <ItemData ItemOID="IT.RS.RSTEST" Value="HAMD1-Feelings of Guilt"/>
      <ItemData ItemOID="IT.RS.RSCAT" Value="HAMD 17"/>
      <ItemData ItemOID="IT.RS.RSORRES" Value="Absent."/>
      <ItemData ItemOID="IT.RS.RSSTRESC" Value="0"/>
      <ItemData ItemOID="IT.RS.RSSTRESN" Value="0"/>
      <ItemData ItemOID="IT.RS.RSLOBXFL" Value="Y"/>
      <ItemData ItemOID="IT.RS.VISITNUM" Value="3"/>
      <ItemData ItemOID="IT.RS.VISIT" Value="BASELINE"/>
      <ItemData ItemOID="IT.RS.EPOCH" Value="SCREENING"/>
      <ItemData ItemOID="IT.RS.RSDTC" Value="2013-08-29"/>
      <ItemData ItemOID="IT.RS.RSDY" Value="1"/>
      <ItemData ItemOID="IT.RS.RSEVLINT" Value="-P1W"/>
    </ItemGroupData>
    <ItemGroupData ItemGroupOID="IG.RS" data:ItemGroupDataSeq="55">
      <ItemData ItemOID="IT.RS.STUDYID" Value="CDISCPILOT01"/>
      <ItemData ItemOID="IT.RS.DOMAIN" Value="RS"/>
      <ItemData ItemOID="IT.RS.USUBJID" Value="CDISC003"/>
      <ItemData ItemOID="IT.RS.RSSEQ" Value="2"/>
      <ItemData ItemOID="IT.RS.RSTESTCD" Value="HAMD103"/>
      <ItemData ItemOID="IT.RS.RSTEST" Value="HAMD1-Suicide"/>
      <ItemData ItemOID="IT.RS.RSCAT" Value="HAMD 17"/>
      <ItemData ItemOID="IT.RS.RSORRES" Value="Absent."/>
      <ItemData ItemOID="IT.RS.RSSTRESC" Value="0"/>
      <ItemData ItemOID="IT.RS.RSSTRESN" Value="0"/>
      <ItemData ItemOID="IT.RS.RSLOBXFL" Value="Y"/>
      <ItemData ItemOID="IT.RS.VISITNUM" Value="3"/>
      <ItemData ItemOID="IT.RS.VISIT" Value="BASELINE"/>
      <ItemData ItemOID="IT.RS.EPOCH" Value="SCREENING"/>
      <ItemData ItemOID="IT.RS.RSDTC" Value="2013-08-29"/>
      <ItemData ItemOID="IT.RS.RSDY" Value="1"/>
      <ItemData ItemOID="IT.RS.RSEVLINT" Value="-P1W"/>
    </ItemGroupData>
    <ItemGroupData ItemGroupOID="IG.RS" data:ItemGroupDataSeq="56">
      <ItemData ItemOID="IT.RS.STUDYID" Value="CDISCPILOT01"/>
      <ItemData ItemOID="IT.RS.DOMAIN" Value="RS"/>
      <ItemData ItemOID="IT.RS.USUBJID" Value="CDISC003"/>
      <ItemData ItemOID="IT.RS.RSSEQ" Value="3"/>
      <ItemData ItemOID="IT.RS.RSTESTCD" Value="HAMD104"/>
      <ItemData ItemOID="IT.RS.RSTEST" Value="HAMD1-Insomnia Early - Early Night"/>
      <ItemData ItemOID="IT.RS.RSCAT" Value="HAMD 17"/>
      <ItemData ItemOID="IT.RS.RSORRES" Value="No difficulty falling asleep."/>
      <ItemData ItemOID="IT.RS.RSSTRESC" Value="0"/>
      <ItemData ItemOID="IT.RS.RSSTRESN" Value="0"/>
      <ItemData ItemOID="IT.RS.RSLOBXFL" Value="Y"/>
      <ItemData ItemOID="IT.RS.VISITNUM" Value="3"/>
      <ItemData ItemOID="IT.RS.VISIT" Value="BASELINE"/>
      <ItemData ItemOID="IT.RS.EPOCH" Value="SCREENING"/>
      <ItemData ItemOID="IT.RS.RSDTC" Value="2013-08-29"/>
      <ItemData ItemOID="IT.RS.RSDY" Value="1"/>
      <ItemData ItemOID="IT.RS.RSEVLINT" Value="-P1W"/>
    </ItemGroupData>
    <ItemGroupData ItemGroupOID="IG.RS" data:ItemGroupDataSeq="57">
      <ItemData ItemOID="IT.RS.STUDYID" Value="CDISCPILOT01"/>
      <ItemData ItemOID="IT.RS.DOMAIN" Value="RS"/>
      <ItemData ItemOID="IT.RS.USUBJID" Value="CDISC003"/>
      <ItemData ItemOID="IT.RS.RSSEQ" Value="4"/>
      <ItemData ItemOID="IT.RS.RSTESTCD" Value="HAMD105"/>
      <ItemData ItemOID="IT.RS.RSTEST" Value="HAMD1-Insomnia Middle - Middle Night"/>
      <ItemData ItemOID="IT.RS.RSCAT" Value="HAMD 17"/>
      <ItemData ItemOID="IT.RS.RSORRES" Value="No difficulty."/>
      <ItemData ItemOID="IT.RS.RSSTRESC" Value="0"/>
      <ItemData ItemOID="IT.RS.RSSTRESN" Value="0"/>
      <ItemData ItemOID="IT.RS.RSLOBXFL" Value="Y"/>
      <ItemData ItemOID="IT.RS.VISITNUM" Value="3"/>
      <ItemData ItemOID="IT.RS.VISIT" Value="BASELINE"/>
      <ItemData ItemOID="IT.RS.EPOCH" Value="SCREENING"/>
      <ItemData ItemOID="IT.RS.RSDTC" Value="2013-08-29"/>
      <ItemData ItemOID="IT.RS.RSDY" Value="1"/>
      <ItemData ItemOID="IT.RS.RSEVLINT" Value="-P1W"/>
    </ItemGroupData>
    <ItemGroupData ItemGroupOID="IG.RS" data:ItemGroupDataSeq="58">
      <ItemData ItemOID="IT.RS.STUDYID" Value="CDISCPILOT01"/>
      <ItemData ItemOID="IT.RS.DOMAIN" Value="RS"/>
      <ItemData ItemOID="IT.RS.USUBJID" Value="CDISC003"/>
      <ItemData ItemOID="IT.RS.RSSEQ" Value="5"/>
      <ItemData ItemOID="IT.RS.RSTESTCD" Value="HAMD106"/>
      <ItemData ItemOID="IT.RS.RSTEST" Value="HAMD1-Insomnia Early Hours - Morning"/>
      <ItemData ItemOID="IT.RS.RSCAT" Value="HAMD 17"/>
      <ItemData ItemOID="IT.RS.RSORRES" Value="No difficulty."/>
      <ItemData ItemOID="IT.RS.RSSTRESC" Value="0"/>
      <ItemData ItemOID="IT.RS.RSSTRESN" Value="0"/>
      <ItemData ItemOID="IT.RS.RSLOBXFL" Value="Y"/>
      <ItemData ItemOID="IT.RS.VISITNUM" Value="3"/>
      <ItemData ItemOID="IT.RS.VISIT" Value="BASELINE"/>
      <ItemData ItemOID="IT.RS.EPOCH" Value="SCREENING"/>
      <ItemData ItemOID="IT.RS.RSDTC" Value="2013-08-29"/>
      <ItemData ItemOID="IT.RS.RSDY" Value="1"/>
      <ItemData ItemOID="IT.RS.RSEVLINT" Value="-P1W"/>
    </ItemGroupData>
    <ItemGroupData ItemGroupOID="IG.RS" data:ItemGroupDataSeq="59">
      <ItemData ItemOID="IT.RS.STUDYID" Value="CDISCPILOT01"/>
      <ItemData ItemOID="IT.RS.DOMAIN" Value="RS"/>
      <ItemData ItemOID="IT.RS.USUBJID" Value="CDISC003"/>
      <ItemData ItemOID="IT.RS.RSSEQ" Value="6"/>
      <ItemData ItemOID="IT.RS.RSTESTCD" Value="HAMD107"/>
      <ItemData ItemOID="IT.RS.RSTEST" Value="HAMD1-Work and Activities"/>
      <ItemData ItemOID="IT.RS.RSCAT" Value="HAMD 17"/>
      <ItemData ItemOID="IT.RS.RSORRES" Value="Thoughts and feelings of incapacity, fatigue or weakness related to activities, work or hobbies."/>
      <ItemData ItemOID="IT.RS.RSSTRESC" Value="1"/>
      <ItemData ItemOID="IT.RS.RSSTRESN" Value="1"/>
      <ItemData ItemOID="IT.RS.RSLOBXFL" Value="Y"/>
      <ItemData ItemOID="IT.RS.VISITNUM" Value="3"/>
      <ItemData ItemOID="IT.RS.VISIT" Value="BASELINE"/>
      <ItemData ItemOID="IT.RS.EPOCH" Value="SCREENING"/>
      <ItemData ItemOID="IT.RS.RSDTC" Value="2013-08-29"/>
      <ItemData ItemOID="IT.RS.RSDY" Value="1"/>
      <ItemData ItemOID="IT.RS.RSEVLINT" Value="-P1W"/>
    </ItemGroupData>
    <ItemGroupData ItemGroupOID="IG.RS" data:ItemGroupDataSeq="60">
      <ItemData ItemOID="IT.RS.STUDYID" Value="CDISCPILOT01"/>
      <ItemData ItemOID="IT.RS.DOMAIN" Value="RS"/>
      <ItemData ItemOID="IT.RS.USUBJID" Value="CDISC003"/>
      <ItemData ItemOID="IT.RS.RSSEQ" Value="7"/>
      <ItemData ItemOID="IT.RS.RSTESTCD" Value="HAMD108"/>
      <ItemData ItemOID="IT.RS.RSTEST" Value="HAMD1-Retardation"/>
      <ItemData ItemOID="IT.RS.RSCAT" Value="HAMD 17"/>
      <ItemData ItemOID="IT.RS.RSORRES" Value="Normal speech and thought."/>
      <ItemData ItemOID="IT.RS.RSSTRESC" Value="0"/>
      <ItemData ItemOID="IT.RS.RSSTRESN" Value="0"/>
      <ItemData ItemOID="IT.RS.RSLOBXFL" Value="Y"/>
      <ItemData ItemOID="IT.RS.VISITNUM" Value="3"/>
      <ItemData ItemOID="IT.RS.VISIT" Value="BASELINE"/>
      <ItemData ItemOID="IT.RS.EPOCH" Value="SCREENING"/>
      <ItemData ItemOID="IT.RS.RSDTC" Value="2013-08-29"/>
      <ItemData ItemOID="IT.RS.RSDY" Value="1"/>
      <ItemData ItemOID="IT.RS.RSEVLINT" Value="-P1W"/>
    </ItemGroupData>
    <ItemGroupData ItemGroupOID="IG.RS" data:ItemGroupDataSeq="61">
      <ItemData ItemOID="IT.RS.STUDYID" Value="CDISCPILOT01"/>
      <ItemData ItemOID="IT.RS.DOMAIN" Value="RS"/>
      <ItemData ItemOID="IT.RS.USUBJID" Value="CDISC003"/>
      <ItemData ItemOID="IT.RS.RSSEQ" Value="8"/>
      <ItemData ItemOID="IT.RS.RSTESTCD" Value="HAMD109"/>
      <ItemData ItemOID="IT.RS.RSTEST" Value="HAMD1-Agitation"/>
      <ItemData ItemOID="IT.RS.RSCAT" Value="HAMD 17"/>
      <ItemData ItemOID="IT.RS.RSORRES" Value="Playing with hands, hair, etc."/>
      <ItemData ItemOID="IT.RS.RSSTRESC" Value="2"/>
      <ItemData ItemOID="IT.RS.RSSTRESN" Value="2"/>
      <ItemData ItemOID="IT.RS.RSLOBXFL" Value="Y"/>
      <ItemData ItemOID="IT.RS.VISITNUM" Value="3"/>
      <ItemData ItemOID="IT.RS.VISIT" Value="BASELINE"/>
      <ItemData ItemOID="IT.RS.EPOCH" Value="SCREENING"/>
      <ItemData ItemOID="IT.RS.RSDTC" Value="2013-08-29"/>
      <ItemData ItemOID="IT.RS.RSDY" Value="1"/>
      <ItemData ItemOID="IT.RS.RSEVLINT" Value="-P1W"/>
    </ItemGroupData>
    <ItemGroupData ItemGroupOID="IG.RS" data:ItemGroupDataSeq="62">
      <ItemData ItemOID="IT.RS.STUDYID" Value="CDISCPILOT01"/>
      <ItemData ItemOID="IT.RS.DOMAIN" Value="RS"/>
      <ItemData ItemOID="IT.RS.USUBJID" Value="CDISC003"/>
      <ItemData ItemOID="IT.RS.RSSEQ" Value="9"/>
      <ItemData ItemOID="IT.RS.RSTESTCD" Value="HAMD110"/>
      <ItemData ItemOID="IT.RS.RSTEST" Value="HAMD1-Anxiety Psychic"/>
      <ItemData ItemOID="IT.RS.RSCAT" Value="HAMD 17"/>
      <ItemData ItemOID="IT.RS.RSORRES" Value="No difficulty."/>
      <ItemData ItemOID="IT.RS.RSSTRESC" Value="0"/>
      <ItemData ItemOID="IT.RS.RSSTRESN" Value="0"/>
      <ItemData ItemOID="IT.RS.RSLOBXFL" Value="Y"/>
      <ItemData ItemOID="IT.RS.VISITNUM" Value="3"/>
      <ItemData ItemOID="IT.RS.VISIT" Value="BASELINE"/>
      <ItemData ItemOID="IT.RS.EPOCH" Value="SCREENING"/>
      <ItemData ItemOID="IT.RS.RSDTC" Value="2013-08-29"/>
      <ItemData ItemOID="IT.RS.RSDY" Value="1"/>
      <ItemData ItemOID="IT.RS.RSEVLINT" Value="-P1W"/>
    </ItemGroupData>
    <ItemGroupData ItemGroupOID="IG.RS" data:ItemGroupDataSeq="63">
      <ItemData ItemOID="IT.RS.STUDYID" Value="CDISCPILOT01"/>
      <ItemData ItemOID="IT.RS.DOMAIN" Value="RS"/>
      <ItemData ItemOID="IT.RS.USUBJID" Value="CDISC003"/>
      <ItemData ItemOID="IT.RS.RSSEQ" Value="10"/>
      <ItemData ItemOID="IT.RS.RSTESTCD" Value="HAMD111"/>
      <ItemData ItemOID="IT.RS.RSTEST" Value="HAMD1-Anxiety Somatic"/>
      <ItemData ItemOID="IT.RS.RSCAT" Value="HAMD 17"/>
      <ItemData ItemOID="IT.RS.RSORRES" Value="Absent."/>
      <ItemData ItemOID="IT.RS.RSSTRESC" Value="0"/>
      <ItemData ItemOID="IT.RS.RSSTRESN" Value="0"/>
      <ItemData ItemOID="IT.RS.RSLOBXFL" Value="Y"/>
      <ItemData ItemOID="IT.RS.VISITNUM" Value="3"/>
      <ItemData ItemOID="IT.RS.VISIT" Value="BASELINE"/>
      <ItemData ItemOID="IT.RS.EPOCH" Value="SCREENING"/>
      <ItemData ItemOID="IT.RS.RSDTC" Value="2013-08-29"/>
      <ItemData ItemOID="IT.RS.RSDY" Value="1"/>
      <ItemData ItemOID="IT.RS.RSEVLINT" Value="-P1W"/>
    </ItemGroupData>
    <ItemGroupData ItemGroupOID="IG.RS" data:ItemGroupDataSeq="64">
      <ItemData ItemOID="IT.RS.STUDYID" Value="CDISCPILOT01"/>
      <ItemData ItemOID="IT.RS.DOMAIN" Value="RS"/>
      <ItemData ItemOID="IT.RS.USUBJID" Value="CDISC003"/>
      <ItemData ItemOID="IT.RS.RSSEQ" Value="11"/>
      <ItemData ItemOID="IT.RS.RSTESTCD" Value="HAMD112"/>
      <ItemData ItemOID="IT.RS.RSTEST" Value="HAMD1-Somatic Symptoms GI"/>
      <ItemData ItemOID="IT.RS.RSCAT" Value="HAMD 17"/>
      <ItemData ItemOID="IT.RS.RSORRES" Value="None."/>
      <ItemData ItemOID="IT.RS.RSSTRESC" Value="0"/>
      <ItemData ItemOID="IT.RS.RSSTRESN" Value="0"/>
      <ItemData ItemOID="IT.RS.RSLOBXFL" Value="Y"/>
      <ItemData ItemOID="IT.RS.VISITNUM" Value="3"/>
      <ItemData ItemOID="IT.RS.VISIT" Value="BASELINE"/>
      <ItemData ItemOID="IT.RS.EPOCH" Value="SCREENING"/>
      <ItemData ItemOID="IT.RS.RSDTC" Value="2013-08-29"/>
      <ItemData ItemOID="IT.RS.RSDY" Value="1"/>
      <ItemData ItemOID="IT.RS.RSEVLINT" Value="-P1W"/>
    </ItemGroupData>
    <ItemGroupData ItemGroupOID="IG.RS" data:ItemGroupDataSeq="65">
      <ItemData ItemOID="IT.RS.STUDYID" Value="CDISCPILOT01"/>
      <ItemData ItemOID="IT.RS.DOMAIN" Value="RS"/>
      <ItemData ItemOID="IT.RS.USUBJID" Value="CDISC003"/>
      <ItemData ItemOID="IT.RS.RSSEQ" Value="12"/>
      <ItemData ItemOID="IT.RS.RSTESTCD" Value="HAMD113"/>
      <ItemData ItemOID="IT.RS.RSTEST" Value="HAMD1-General Somatic Symptoms"/>
      <ItemData ItemOID="IT.RS.RSCAT" Value="HAMD 17"/>
      <ItemData ItemOID="IT.RS.RSORRES" Value="None."/>
      <ItemData ItemOID="IT.RS.RSSTRESC" Value="0"/>
      <ItemData ItemOID="IT.RS.RSSTRESN" Value="0"/>
      <ItemData ItemOID="IT.RS.RSLOBXFL" Value="Y"/>
      <ItemData ItemOID="IT.RS.VISITNUM" Value="3"/>
      <ItemData ItemOID="IT.RS.VISIT" Value="BASELINE"/>
      <ItemData ItemOID="IT.RS.EPOCH" Value="SCREENING"/>
      <ItemData ItemOID="IT.RS.RSDTC" Value="2013-08-29"/>
      <ItemData ItemOID="IT.RS.RSDY" Value="1"/>
      <ItemData ItemOID="IT.RS.RSEVLINT" Value="-P1W"/>
    </ItemGroupData>
    <ItemGroupData ItemGroupOID="IG.RS" data:ItemGroupDataSeq="66">
      <ItemData ItemOID="IT.RS.STUDYID" Value="CDISCPILOT01"/>
      <ItemData ItemOID="IT.RS.DOMAIN" Value="RS"/>
      <ItemData ItemOID="IT.RS.USUBJID" Value="CDISC003"/>
      <ItemData ItemOID="IT.RS.RSSEQ" Value="13"/>
      <ItemData ItemOID="IT.RS.RSTESTCD" Value="HAMD114"/>
      <ItemData ItemOID="IT.RS.RSTEST" Value="HAMD1-Genital Symptoms"/>
      <ItemData ItemOID="IT.RS.RSCAT" Value="HAMD 17"/>
      <ItemData ItemOID="IT.RS.RSORRES" Value="Absent."/>
      <ItemData ItemOID="IT.RS.RSSTRESC" Value="1"/>
      <ItemData ItemOID="IT.RS.RSSTRESN" Value="1"/>
      <ItemData ItemOID="IT.RS.RSLOBXFL" Value="Y"/>
      <ItemData ItemOID="IT.RS.VISITNUM" Value="3"/>
      <ItemData ItemOID="IT.RS.VISIT" Value="BASELINE"/>
      <ItemData ItemOID="IT.RS.EPOCH" Value="SCREENING"/>
      <ItemData ItemOID="IT.RS.RSDTC" Value="2013-08-29"/>
      <ItemData ItemOID="IT.RS.RSDY" Value="1"/>
      <ItemData ItemOID="IT.RS.RSEVLINT" Value="-P1W"/>
    </ItemGroupData>
    <ItemGroupData ItemGroupOID="IG.RS" data:ItemGroupDataSeq="67">
      <ItemData ItemOID="IT.RS.STUDYID" Value="CDISCPILOT01"/>
      <ItemData ItemOID="IT.RS.DOMAIN" Value="RS"/>
      <ItemData ItemOID="IT.RS.USUBJID" Value="CDISC003"/>
      <ItemData ItemOID="IT.RS.RSSEQ" Value="14"/>
      <ItemData ItemOID="IT.RS.RSTESTCD" Value="HAMD115"/>
      <ItemData ItemOID="IT.RS.RSTEST" Value="HAMD1-Hypochondriasis"/>
      <ItemData ItemOID="IT.RS.RSCAT" Value="HAMD 17"/>
      <ItemData ItemOID="IT.RS.RSORRES" Value="Not present."/>
      <ItemData ItemOID="IT.RS.RSSTRESC" Value="0"/>
      <ItemData ItemOID="IT.RS.RSSTRESN" Value="0"/>
      <ItemData ItemOID="IT.RS.RSLOBXFL" Value="Y"/>
      <ItemData ItemOID="IT.RS.VISITNUM" Value="3"/>
      <ItemData ItemOID="IT.RS.VISIT" Value="BASELINE"/>
      <ItemData ItemOID="IT.RS.EPOCH" Value="SCREENING"/>
      <ItemData ItemOID="IT.RS.RSDTC" Value="2013-08-29"/>
      <ItemData ItemOID="IT.RS.RSDY" Value="1"/>
      <ItemData ItemOID="IT.RS.RSEVLINT" Value="-P1W"/>
    </ItemGroupData>
    <ItemGroupData ItemGroupOID="IG.RS" data:ItemGroupDataSeq="68">
      <ItemData ItemOID="IT.RS.STUDYID" Value="CDISCPILOT01"/>
      <ItemData ItemOID="IT.RS.DOMAIN" Value="RS"/>
      <ItemData ItemOID="IT.RS.USUBJID" Value="CDISC003"/>
      <ItemData ItemOID="IT.RS.RSSEQ" Value="15"/>
      <ItemData ItemOID="IT.RS.RSTESTCD" Value="HAMD116B"/>
      <ItemData ItemOID="IT.RS.RSTEST" Value="HAMD1-Loss of WT According to WK Meas"/>
      <ItemData ItemOID="IT.RS.RSCAT" Value="HAMD 17"/>
      <ItemData ItemOID="IT.RS.RSORRES" Value="No weight loss."/>
      <ItemData ItemOID="IT.RS.RSSTRESC" Value="0"/>
      <ItemData ItemOID="IT.RS.RSSTRESN" Value="0"/>
      <ItemData ItemOID="IT.RS.RSLOBXFL" Value="Y"/>
      <ItemData ItemOID="IT.RS.VISITNUM" Value="3"/>
      <ItemData ItemOID="IT.RS.VISIT" Value="BASELINE"/>
      <ItemData ItemOID="IT.RS.EPOCH" Value="SCREENING"/>
      <ItemData ItemOID="IT.RS.RSDTC" Value="2013-08-29"/>
      <ItemData ItemOID="IT.RS.RSDY" Value="1"/>
      <ItemData ItemOID="IT.RS.RSEVLINT" Value="-P1W"/>
    </ItemGroupData>
    <ItemGroupData ItemGroupOID="IG.RS" data:ItemGroupDataSeq="69">
      <ItemData ItemOID="IT.RS.STUDYID" Value="CDISCPILOT01"/>
      <ItemData ItemOID="IT.RS.DOMAIN" Value="RS"/>
      <ItemData ItemOID="IT.RS.USUBJID" Value="CDISC003"/>
      <ItemData ItemOID="IT.RS.RSSEQ" Value="16"/>
      <ItemData ItemOID="IT.RS.RSTESTCD" Value="HAMD117"/>
      <ItemData ItemOID="IT.RS.RSTEST" Value="HAMD1-Insight"/>
      <ItemData ItemOID="IT.RS.RSCAT" Value="HAMD 17"/>
      <ItemData ItemOID="IT.RS.RSORRES" Value="Acknowledges being depressed and ill."/>
      <ItemData ItemOID="IT.RS.RSSTRESC" Value="0"/>
      <ItemData ItemOID="IT.RS.RSSTRESN" Value="0"/>
      <ItemData ItemOID="IT.RS.RSLOBXFL" Value="Y"/>
      <ItemData ItemOID="IT.RS.VISITNUM" Value="3"/>
      <ItemData ItemOID="IT.RS.VISIT" Value="BASELINE"/>
      <ItemData ItemOID="IT.RS.EPOCH" Value="SCREENING"/>
      <ItemData ItemOID="IT.RS.RSDTC" Value="2013-08-29"/>
      <ItemData ItemOID="IT.RS.RSDY" Value="1"/>
      <ItemData ItemOID="IT.RS.RSEVLINT" Value="-P1W"/>
    </ItemGroupData>
    <ItemGroupData ItemGroupOID="IG.RS" data:ItemGroupDataSeq="70">
      <ItemData ItemOID="IT.RS.STUDYID" Value="CDISCPILOT01"/>
      <ItemData ItemOID="IT.RS.DOMAIN" Value="RS"/>
      <ItemData ItemOID="IT.RS.USUBJID" Value="CDISC003"/>
      <ItemData ItemOID="IT.RS.RSSEQ" Value="17"/>
      <ItemData ItemOID="IT.RS.RSTESTCD" Value="HAMD118"/>
      <ItemData ItemOID="IT.RS.RSTEST" Value="HAMD1-Total Score"/>
      <ItemData ItemOID="IT.RS.RSCAT" Value="HAMD 17"/>
      <ItemData ItemOID="IT.RS.RSORRES" Value="4"/>
      <ItemData ItemOID="IT.RS.RSSTRESC" Value="4"/>
      <ItemData ItemOID="IT.RS.RSSTRESN" Value="4"/>
      <ItemData ItemOID="IT.RS.RSLOBXFL" Value="Y"/>
      <ItemData ItemOID="IT.RS.VISITNUM" Value="3"/>
      <ItemData ItemOID="IT.RS.VISIT" Value="BASELINE"/>
      <ItemData ItemOID="IT.RS.EPOCH" Value="SCREENING"/>
      <ItemData ItemOID="IT.RS.RSDTC" Value="2013-08-29"/>
      <ItemData ItemOID="IT.RS.RSDY" Value="1"/>
      <ItemData ItemOID="IT.RS.RSEVLINT" Value="-P1W"/>
    </ItemGroupData>
    <ItemGroupData ItemGroupOID="IG.RS" data:ItemGroupDataSeq="71">
      <ItemData ItemOID="IT.RS.STUDYID" Value="CDISCPILOT01"/>
      <ItemData ItemOID="IT.RS.DOMAIN" Value="RS"/>
      <ItemData ItemOID="IT.RS.USUBJID" Value="CDISC003"/>
      <ItemData ItemOID="IT.RS.RSSEQ" Value="18"/>
      <ItemData ItemOID="IT.RS.RSTESTCD" Value="HAMD101"/>
      <ItemData ItemOID="IT.RS.RSTEST" Value="HAMD1-Depressed Mood"/>
      <ItemData ItemOID="IT.RS.RSCAT" Value="HAMD 17"/>
      <ItemData ItemOID="IT.RS.RSORRES" Value="Absent."/>
      <ItemData ItemOID="IT.RS.RSSTRESC" Value="0"/>
      <ItemData ItemOID="IT.RS.RSSTRESN" Value="0"/>
      <ItemData ItemOID="IT.RS.VISITNUM" Value="201"/>
      <ItemData ItemOID="IT.RS.VISIT" Value="EARLY DISCONTINUATION RETRIEVAL"/>
      <ItemData ItemOID="IT.RS.EPOCH" Value="TREATMENT"/>
      <ItemData ItemOID="IT.RS.RSDTC" Value="2014-02-13"/>
      <ItemData ItemOID="IT.RS.RSDY" Value="169"/>
      <ItemData ItemOID="IT.RS.RSEVLINT" Value="-P1W"/>
    </ItemGroupData>
    <ItemGroupData ItemGroupOID="IG.RS" data:ItemGroupDataSeq="72">
      <ItemData ItemOID="IT.RS.STUDYID" Value="CDISCPILOT01"/>
      <ItemData ItemOID="IT.RS.DOMAIN" Value="RS"/>
      <ItemData ItemOID="IT.RS.USUBJID" Value="CDISC003"/>
      <ItemData ItemOID="IT.RS.RSSEQ" Value="19"/>
      <ItemData ItemOID="IT.RS.RSTESTCD" Value="HAMD102"/>
      <ItemData ItemOID="IT.RS.RSTEST" Value="HAMD1-Feelings of Guilt"/>
      <ItemData ItemOID="IT.RS.RSCAT" Value="HAMD 17"/>
      <ItemData ItemOID="IT.RS.RSORRES" Value="Absent."/>
      <ItemData ItemOID="IT.RS.RSSTRESC" Value="0"/>
      <ItemData ItemOID="IT.RS.RSSTRESN" Value="0"/>
      <ItemData ItemOID="IT.RS.VISITNUM" Value="201"/>
      <ItemData ItemOID="IT.RS.VISIT" Value="EARLY DISCONTINUATION RETRIEVAL"/>
      <ItemData ItemOID="IT.RS.EPOCH" Value="TREATMENT"/>
      <ItemData ItemOID="IT.RS.RSDTC" Value="2014-02-13"/>
      <ItemData ItemOID="IT.RS.RSDY" Value="169"/>
      <ItemData ItemOID="IT.RS.RSEVLINT" Value="-P1W"/>
    </ItemGroupData>
    <ItemGroupData ItemGroupOID="IG.RS" data:ItemGroupDataSeq="73">
      <ItemData ItemOID="IT.RS.STUDYID" Value="CDISCPILOT01"/>
      <ItemData ItemOID="IT.RS.DOMAIN" Value="RS"/>
      <ItemData ItemOID="IT.RS.USUBJID" Value="CDISC003"/>
      <ItemData ItemOID="IT.RS.RSSEQ" Value="20"/>
      <ItemData ItemOID="IT.RS.RSTESTCD" Value="HAMD103"/>
      <ItemData ItemOID="IT.RS.RSTEST" Value="HAMD1-Suicide"/>
      <ItemData ItemOID="IT.RS.RSCAT" Value="HAMD 17"/>
      <ItemData ItemOID="IT.RS.RSORRES" Value="Absent."/>
      <ItemData ItemOID="IT.RS.RSSTRESC" Value="0"/>
      <ItemData ItemOID="IT.RS.RSSTRESN" Value="0"/>
      <ItemData ItemOID="IT.RS.VISITNUM" Value="201"/>
      <ItemData ItemOID="IT.RS.VISIT" Value="EARLY DISCONTINUATION RETRIEVAL"/>
      <ItemData ItemOID="IT.RS.EPOCH" Value="TREATMENT"/>
      <ItemData ItemOID="IT.RS.RSDTC" Value="2014-02-13"/>
      <ItemData ItemOID="IT.RS.RSDY" Value="169"/>
      <ItemData ItemOID="IT.RS.RSEVLINT" Value="-P1W"/>
    </ItemGroupData>
    <ItemGroupData ItemGroupOID="IG.RS" data:ItemGroupDataSeq="74">
      <ItemData ItemOID="IT.RS.STUDYID" Value="CDISCPILOT01"/>
      <ItemData ItemOID="IT.RS.DOMAIN" Value="RS"/>
      <ItemData ItemOID="IT.RS.USUBJID" Value="CDISC003"/>
      <ItemData ItemOID="IT.RS.RSSEQ" Value="21"/>
      <ItemData ItemOID="IT.RS.RSTESTCD" Value="HAMD104"/>
      <ItemData ItemOID="IT.RS.RSTEST" Value="HAMD1-Insomnia Early - Early Night"/>
      <ItemData ItemOID="IT.RS.RSCAT" Value="HAMD 17"/>
      <ItemData ItemOID="IT.RS.RSORRES" Value="No difficulty falling asleep."/>
      <ItemData ItemOID="IT.RS.RSSTRESC" Value="0"/>
      <ItemData ItemOID="IT.RS.RSSTRESN" Value="0"/>
      <ItemData ItemOID="IT.RS.VISITNUM" Value="201"/>
      <ItemData ItemOID="IT.RS.VISIT" Value="EARLY DISCONTINUATION RETRIEVAL"/>
      <ItemData ItemOID="IT.RS.EPOCH" Value="TREATMENT"/>
      <ItemData ItemOID="IT.RS.RSDTC" Value="2014-02-13"/>
      <ItemData ItemOID="IT.RS.RSDY" Value="169"/>
      <ItemData ItemOID="IT.RS.RSEVLINT" Value="-P1W"/>
    </ItemGroupData>
    <ItemGroupData ItemGroupOID="IG.RS" data:ItemGroupDataSeq="75">
      <ItemData ItemOID="IT.RS.STUDYID" Value="CDISCPILOT01"/>
      <ItemData ItemOID="IT.RS.DOMAIN" Value="RS"/>
      <ItemData ItemOID="IT.RS.USUBJID" Value="CDISC003"/>
      <ItemData ItemOID="IT.RS.RSSEQ" Value="22"/>
      <ItemData ItemOID="IT.RS.RSTESTCD" Value="HAMD105"/>
      <ItemData ItemOID="IT.RS.RSTEST" Value="HAMD1-Insomnia Middle - Middle Night"/>
      <ItemData ItemOID="IT.RS.RSCAT" Value="HAMD 17"/>
      <ItemData ItemOID="IT.RS.RSORRES" Value="No difficulty."/>
      <ItemData ItemOID="IT.RS.RSSTRESC" Value="0"/>
      <ItemData ItemOID="IT.RS.RSSTRESN" Value="0"/>
      <ItemData ItemOID="IT.RS.VISITNUM" Value="201"/>
      <ItemData ItemOID="IT.RS.VISIT" Value="EARLY DISCONTINUATION RETRIEVAL"/>
      <ItemData ItemOID="IT.RS.EPOCH" Value="TREATMENT"/>
      <ItemData ItemOID="IT.RS.RSDTC" Value="2014-02-13"/>
      <ItemData ItemOID="IT.RS.RSDY" Value="169"/>
      <ItemData ItemOID="IT.RS.RSEVLINT" Value="-P1W"/>
    </ItemGroupData>
    <ItemGroupData ItemGroupOID="IG.RS" data:ItemGroupDataSeq="76">
      <ItemData ItemOID="IT.RS.STUDYID" Value="CDISCPILOT01"/>
      <ItemData ItemOID="IT.RS.DOMAIN" Value="RS"/>
      <ItemData ItemOID="IT.RS.USUBJID" Value="CDISC003"/>
      <ItemData ItemOID="IT.RS.RSSEQ" Value="23"/>
      <ItemData ItemOID="IT.RS.RSTESTCD" Value="HAMD106"/>
      <ItemData ItemOID="IT.RS.RSTEST" Value="HAMD1-Insomnia Early Hours - Morning"/>
      <ItemData ItemOID="IT.RS.RSCAT" Value="HAMD 17"/>
      <ItemData ItemOID="IT.RS.RSORRES" Value="No difficulty."/>
      <ItemData ItemOID="IT.RS.RSSTRESC" Value="0"/>
      <ItemData ItemOID="IT.RS.RSSTRESN" Value="0"/>
      <ItemData ItemOID="IT.RS.VISITNUM" Value="201"/>
      <ItemData ItemOID="IT.RS.VISIT" Value="EARLY DISCONTINUATION RETRIEVAL"/>
      <ItemData ItemOID="IT.RS.EPOCH" Value="TREATMENT"/>
      <ItemData ItemOID="IT.RS.RSDTC" Value="2014-02-13"/>
      <ItemData ItemOID="IT.RS.RSDY" Value="169"/>
      <ItemData ItemOID="IT.RS.RSEVLINT" Value="-P1W"/>
    </ItemGroupData>
    <ItemGroupData ItemGroupOID="IG.RS" data:ItemGroupDataSeq="77">
      <ItemData ItemOID="IT.RS.STUDYID" Value="CDISCPILOT01"/>
      <ItemData ItemOID="IT.RS.DOMAIN" Value="RS"/>
      <ItemData ItemOID="IT.RS.USUBJID" Value="CDISC003"/>
      <ItemData ItemOID="IT.RS.RSSEQ" Value="24"/>
      <ItemData ItemOID="IT.RS.RSTESTCD" Value="HAMD107"/>
      <ItemData ItemOID="IT.RS.RSTEST" Value="HAMD1-Work and Activities"/>
      <ItemData ItemOID="IT.RS.RSCAT" Value="HAMD 17"/>
      <ItemData ItemOID="IT.RS.RSORRES" Value="Thoughts and feelings of incapacity, fatigue or weakness related to activities, work or hobbies."/>
      <ItemData ItemOID="IT.RS.RSSTRESC" Value="1"/>
      <ItemData ItemOID="IT.RS.RSSTRESN" Value="1"/>
      <ItemData ItemOID="IT.RS.VISITNUM" Value="201"/>
      <ItemData ItemOID="IT.RS.VISIT" Value="EARLY DISCONTINUATION RETRIEVAL"/>
      <ItemData ItemOID="IT.RS.EPOCH" Value="TREATMENT"/>
      <ItemData ItemOID="IT.RS.RSDTC" Value="2014-02-13"/>
      <ItemData ItemOID="IT.RS.RSDY" Value="169"/>
      <ItemData ItemOID="IT.RS.RSEVLINT" Value="-P1W"/>
    </ItemGroupData>
    <ItemGroupData ItemGroupOID="IG.RS" data:ItemGroupDataSeq="78">
      <ItemData ItemOID="IT.RS.STUDYID" Value="CDISCPILOT01"/>
      <ItemData ItemOID="IT.RS.DOMAIN" Value="RS"/>
      <ItemData ItemOID="IT.RS.USUBJID" Value="CDISC003"/>
      <ItemData ItemOID="IT.RS.RSSEQ" Value="25"/>
      <ItemData ItemOID="IT.RS.RSTESTCD" Value="HAMD108"/>
      <ItemData ItemOID="IT.RS.RSTEST" Value="HAMD1-Retardation"/>
      <ItemData ItemOID="IT.RS.RSCAT" Value="HAMD 17"/>
      <ItemData ItemOID="IT.RS.RSORRES" Value="Normal speech and thought."/>
      <ItemData ItemOID="IT.RS.RSSTRESC" Value="0"/>
      <ItemData ItemOID="IT.RS.RSSTRESN" Value="0"/>
      <ItemData ItemOID="IT.RS.VISITNUM" Value="201"/>
      <ItemData ItemOID="IT.RS.VISIT" Value="EARLY DISCONTINUATION RETRIEVAL"/>
      <ItemData ItemOID="IT.RS.EPOCH" Value="TREATMENT"/>
      <ItemData ItemOID="IT.RS.RSDTC" Value="2014-02-13"/>
      <ItemData ItemOID="IT.RS.RSDY" Value="169"/>
      <ItemData ItemOID="IT.RS.RSEVLINT" Value="-P1W"/>
    </ItemGroupData>
    <ItemGroupData ItemGroupOID="IG.RS" data:ItemGroupDataSeq="79">
      <ItemData ItemOID="IT.RS.STUDYID" Value="CDISCPILOT01"/>
      <ItemData ItemOID="IT.RS.DOMAIN" Value="RS"/>
      <ItemData ItemOID="IT.RS.USUBJID" Value="CDISC003"/>
      <ItemData ItemOID="IT.RS.RSSEQ" Value="26"/>
      <ItemData ItemOID="IT.RS.RSTESTCD" Value="HAMD109"/>
      <ItemData ItemOID="IT.RS.RSTEST" Value="HAMD1-Agitation"/>
      <ItemData ItemOID="IT.RS.RSCAT" Value="HAMD 17"/>
      <ItemData ItemOID="IT.RS.RSORRES" Value="Fidgetiness."/>
      <ItemData ItemOID="IT.RS.RSSTRESC" Value="1"/>
      <ItemData ItemOID="IT.RS.RSSTRESN" Value="1"/>
      <ItemData ItemOID="IT.RS.VISITNUM" Value="201"/>
      <ItemData ItemOID="IT.RS.VISIT" Value="EARLY DISCONTINUATION RETRIEVAL"/>
      <ItemData ItemOID="IT.RS.EPOCH" Value="TREATMENT"/>
      <ItemData ItemOID="IT.RS.RSDTC" Value="2014-02-13"/>
      <ItemData ItemOID="IT.RS.RSDY" Value="169"/>
      <ItemData ItemOID="IT.RS.RSEVLINT" Value="-P1W"/>
    </ItemGroupData>
    <ItemGroupData ItemGroupOID="IG.RS" data:ItemGroupDataSeq="80">
      <ItemData ItemOID="IT.RS.STUDYID" Value="CDISCPILOT01"/>
      <ItemData ItemOID="IT.RS.DOMAIN" Value="RS"/>
      <ItemData ItemOID="IT.RS.USUBJID" Value="CDISC003"/>
      <ItemData ItemOID="IT.RS.RSSEQ" Value="27"/>
      <ItemData ItemOID="IT.RS.RSTESTCD" Value="HAMD110"/>
      <ItemData ItemOID="IT.RS.RSTEST" Value="HAMD1-Anxiety Psychic"/>
      <ItemData ItemOID="IT.RS.RSCAT" Value="HAMD 17"/>
      <ItemData ItemOID="IT.RS.RSORRES" Value="Subjective tension and irritability."/>
      <ItemData ItemOID="IT.RS.RSSTRESC" Value="1"/>
      <ItemData ItemOID="IT.RS.RSSTRESN" Value="1"/>
      <ItemData ItemOID="IT.RS.VISITNUM" Value="201"/>
      <ItemData ItemOID="IT.RS.VISIT" Value="EARLY DISCONTINUATION RETRIEVAL"/>
      <ItemData ItemOID="IT.RS.EPOCH" Value="TREATMENT"/>
      <ItemData ItemOID="IT.RS.RSDTC" Value="2014-02-13"/>
      <ItemData ItemOID="IT.RS.RSDY" Value="169"/>
      <ItemData ItemOID="IT.RS.RSEVLINT" Value="-P1W"/>
    </ItemGroupData>
    <ItemGroupData ItemGroupOID="IG.RS" data:ItemGroupDataSeq="81">
      <ItemData ItemOID="IT.RS.STUDYID" Value="CDISCPILOT01"/>
      <ItemData ItemOID="IT.RS.DOMAIN" Value="RS"/>
      <ItemData ItemOID="IT.RS.USUBJID" Value="CDISC003"/>
      <ItemData ItemOID="IT.RS.RSSEQ" Value="28"/>
      <ItemData ItemOID="IT.RS.RSTESTCD" Value="HAMD111"/>
      <ItemData ItemOID="IT.RS.RSTEST" Value="HAMD1-Anxiety Somatic"/>
      <ItemData ItemOID="IT.RS.RSCAT" Value="HAMD 17"/>
      <ItemData ItemOID="IT.RS.RSORRES" Value="Mild."/>
      <ItemData ItemOID="IT.RS.RSSTRESC" Value="1"/>
      <ItemData ItemOID="IT.RS.RSSTRESN" Value="1"/>
      <ItemData ItemOID="IT.RS.VISITNUM" Value="201"/>
      <ItemData ItemOID="IT.RS.VISIT" Value="EARLY DISCONTINUATION RETRIEVAL"/>
      <ItemData ItemOID="IT.RS.EPOCH" Value="TREATMENT"/>
      <ItemData ItemOID="IT.RS.RSDTC" Value="2014-02-13"/>
      <ItemData ItemOID="IT.RS.RSDY" Value="169"/>
      <ItemData ItemOID="IT.RS.RSEVLINT" Value="-P1W"/>
    </ItemGroupData>
    <ItemGroupData ItemGroupOID="IG.RS" data:ItemGroupDataSeq="82">
      <ItemData ItemOID="IT.RS.STUDYID" Value="CDISCPILOT01"/>
      <ItemData ItemOID="IT.RS.DOMAIN" Value="RS"/>
      <ItemData ItemOID="IT.RS.USUBJID" Value="CDISC003"/>
      <ItemData ItemOID="IT.RS.RSSEQ" Value="29"/>
      <ItemData ItemOID="IT.RS.RSTESTCD" Value="HAMD112"/>
      <ItemData ItemOID="IT.RS.RSTEST" Value="HAMD1-Somatic Symptoms GI"/>
      <ItemData ItemOID="IT.RS.RSCAT" Value="HAMD 17"/>
      <ItemData ItemOID="IT.RS.RSORRES" Value="None."/>
      <ItemData ItemOID="IT.RS.RSSTRESC" Value="0"/>
      <ItemData ItemOID="IT.RS.RSSTRESN" Value="0"/>
      <ItemData ItemOID="IT.RS.VISITNUM" Value="201"/>
      <ItemData ItemOID="IT.RS.VISIT" Value="EARLY DISCONTINUATION RETRIEVAL"/>
      <ItemData ItemOID="IT.RS.EPOCH" Value="TREATMENT"/>
      <ItemData ItemOID="IT.RS.RSDTC" Value="2014-02-13"/>
      <ItemData ItemOID="IT.RS.RSDY" Value="169"/>
      <ItemData ItemOID="IT.RS.RSEVLINT" Value="-P1W"/>
    </ItemGroupData>
    <ItemGroupData ItemGroupOID="IG.RS" data:ItemGroupDataSeq="83">
      <ItemData ItemOID="IT.RS.STUDYID" Value="CDISCPILOT01"/>
      <ItemData ItemOID="IT.RS.DOMAIN" Value="RS"/>
      <ItemData ItemOID="IT.RS.USUBJID" Value="CDISC003"/>
      <ItemData ItemOID="IT.RS.RSSEQ" Value="30"/>
      <ItemData ItemOID="IT.RS.RSTESTCD" Value="HAMD113"/>
      <ItemData ItemOID="IT.RS.RSTEST" Value="HAMD1-General Somatic Symptoms"/>
      <ItemData ItemOID="IT.RS.RSCAT" Value="HAMD 17"/>
      <ItemData ItemOID="IT.RS.RSORRES" Value="None."/>
      <ItemData ItemOID="IT.RS.RSSTRESC" Value="0"/>
      <ItemData ItemOID="IT.RS.RSSTRESN" Value="0"/>
      <ItemData ItemOID="IT.RS.VISITNUM" Value="201"/>
      <ItemData ItemOID="IT.RS.VISIT" Value="EARLY DISCONTINUATION RETRIEVAL"/>
      <ItemData ItemOID="IT.RS.EPOCH" Value="TREATMENT"/>
      <ItemData ItemOID="IT.RS.RSDTC" Value="2014-02-13"/>
      <ItemData ItemOID="IT.RS.RSDY" Value="169"/>
      <ItemData ItemOID="IT.RS.RSEVLINT" Value="-P1W"/>
    </ItemGroupData>
    <ItemGroupData ItemGroupOID="IG.RS" data:ItemGroupDataSeq="84">
      <ItemData ItemOID="IT.RS.STUDYID" Value="CDISCPILOT01"/>
      <ItemData ItemOID="IT.RS.DOMAIN" Value="RS"/>
      <ItemData ItemOID="IT.RS.USUBJID" Value="CDISC003"/>
      <ItemData ItemOID="IT.RS.RSSEQ" Value="31"/>
      <ItemData ItemOID="IT.RS.RSTESTCD" Value="HAMD114"/>
      <ItemData ItemOID="IT.RS.RSTEST" Value="HAMD1-Genital Symptoms"/>
      <ItemData ItemOID="IT.RS.RSCAT" Value="HAMD 17"/>
      <ItemData ItemOID="IT.RS.RSORRES" Value="Absent."/>
      <ItemData ItemOID="IT.RS.RSSTRESC" Value="1"/>
      <ItemData ItemOID="IT.RS.RSSTRESN" Value="1"/>
      <ItemData ItemOID="IT.RS.VISITNUM" Value="201"/>
      <ItemData ItemOID="IT.RS.VISIT" Value="EARLY DISCONTINUATION RETRIEVAL"/>
      <ItemData ItemOID="IT.RS.EPOCH" Value="TREATMENT"/>
      <ItemData ItemOID="IT.RS.RSDTC" Value="2014-02-13"/>
      <ItemData ItemOID="IT.RS.RSDY" Value="169"/>
      <ItemData ItemOID="IT.RS.RSEVLINT" Value="-P1W"/>
    </ItemGroupData>
    <ItemGroupData ItemGroupOID="IG.RS" data:ItemGroupDataSeq="85">
      <ItemData ItemOID="IT.RS.STUDYID" Value="CDISCPILOT01"/>
      <ItemData ItemOID="IT.RS.DOMAIN" Value="RS"/>
      <ItemData ItemOID="IT.RS.USUBJID" Value="CDISC003"/>
      <ItemData ItemOID="IT.RS.RSSEQ" Value="32"/>
      <ItemData ItemOID="IT.RS.RSTESTCD" Value="HAMD115"/>
      <ItemData ItemOID="IT.RS.RSTEST" Value="HAMD1-Hypochondriasis"/>
      <ItemData ItemOID="IT.RS.RSCAT" Value="HAMD 17"/>
      <ItemData ItemOID="IT.RS.RSORRES" Value="Not present."/>
      <ItemData ItemOID="IT.RS.RSSTRESC" Value="0"/>
      <ItemData ItemOID="IT.RS.RSSTRESN" Value="0"/>
      <ItemData ItemOID="IT.RS.VISITNUM" Value="201"/>
      <ItemData ItemOID="IT.RS.VISIT" Value="EARLY DISCONTINUATION RETRIEVAL"/>
      <ItemData ItemOID="IT.RS.EPOCH" Value="TREATMENT"/>
      <ItemData ItemOID="IT.RS.RSDTC" Value="2014-02-13"/>
      <ItemData ItemOID="IT.RS.RSDY" Value="169"/>
      <ItemData ItemOID="IT.RS.RSEVLINT" Value="-P1W"/>
    </ItemGroupData>
    <ItemGroupData ItemGroupOID="IG.RS" data:ItemGroupDataSeq="86">
      <ItemData ItemOID="IT.RS.STUDYID" Value="CDISCPILOT01"/>
      <ItemData ItemOID="IT.RS.DOMAIN" Value="RS"/>
      <ItemData ItemOID="IT.RS.USUBJID" Value="CDISC003"/>
      <ItemData ItemOID="IT.RS.RSSEQ" Value="33"/>
      <ItemData ItemOID="IT.RS.RSTESTCD" Value="HAMD116B"/>
      <ItemData ItemOID="IT.RS.RSTEST" Value="HAMD1-Loss of WT According to WK Meas"/>
      <ItemData ItemOID="IT.RS.RSCAT" Value="HAMD 17"/>
      <ItemData ItemOID="IT.RS.RSORRES" Value="Probable weight loss associated with present illness."/>
      <ItemData ItemOID="IT.RS.RSSTRESC" Value="1"/>
      <ItemData ItemOID="IT.RS.RSSTRESN" Value="1"/>
      <ItemData ItemOID="IT.RS.VISITNUM" Value="201"/>
      <ItemData ItemOID="IT.RS.VISIT" Value="EARLY DISCONTINUATION RETRIEVAL"/>
      <ItemData ItemOID="IT.RS.EPOCH" Value="TREATMENT"/>
      <ItemData ItemOID="IT.RS.RSDTC" Value="2014-02-13"/>
      <ItemData ItemOID="IT.RS.RSDY" Value="169"/>
      <ItemData ItemOID="IT.RS.RSEVLINT" Value="-P1W"/>
    </ItemGroupData>
    <ItemGroupData ItemGroupOID="IG.RS" data:ItemGroupDataSeq="87">
      <ItemData ItemOID="IT.RS.STUDYID" Value="CDISCPILOT01"/>
      <ItemData ItemOID="IT.RS.DOMAIN" Value="RS"/>
      <ItemData ItemOID="IT.RS.USUBJID" Value="CDISC003"/>
      <ItemData ItemOID="IT.RS.RSSEQ" Value="34"/>
      <ItemData ItemOID="IT.RS.RSTESTCD" Value="HAMD117"/>
      <ItemData ItemOID="IT.RS.RSTEST" Value="HAMD1-Insight"/>
      <ItemData ItemOID="IT.RS.RSCAT" Value="HAMD 17"/>
      <ItemData ItemOID="IT.RS.RSORRES" Value="Acknowledges being depressed and ill."/>
      <ItemData ItemOID="IT.RS.RSSTRESC" Value="0"/>
      <ItemData ItemOID="IT.RS.RSSTRESN" Value="0"/>
      <ItemData ItemOID="IT.RS.VISITNUM" Value="201"/>
      <ItemData ItemOID="IT.RS.VISIT" Value="EARLY DISCONTINUATION RETRIEVAL"/>
      <ItemData ItemOID="IT.RS.EPOCH" Value="TREATMENT"/>
      <ItemData ItemOID="IT.RS.RSDTC" Value="2014-02-13"/>
      <ItemData ItemOID="IT.RS.RSDY" Value="169"/>
      <ItemData ItemOID="IT.RS.RSEVLINT" Value="-P1W"/>
    </ItemGroupData>
    <ItemGroupData ItemGroupOID="IG.RS" data:ItemGroupDataSeq="88">
      <ItemData ItemOID="IT.RS.STUDYID" Value="CDISCPILOT01"/>
      <ItemData ItemOID="IT.RS.DOMAIN" Value="RS"/>
      <ItemData ItemOID="IT.RS.USUBJID" Value="CDISC003"/>
      <ItemData ItemOID="IT.RS.RSSEQ" Value="35"/>
      <ItemData ItemOID="IT.RS.RSTESTCD" Value="HAMD118"/>
      <ItemData ItemOID="IT.RS.RSTEST" Value="HAMD1-Total Score"/>
      <ItemData ItemOID="IT.RS.RSCAT" Value="HAMD 17"/>
      <ItemData ItemOID="IT.RS.RSORRES" Value="6"/>
      <ItemData ItemOID="IT.RS.RSSTRESC" Value="6"/>
      <ItemData ItemOID="IT.RS.RSSTRESN" Value="6"/>
      <ItemData ItemOID="IT.RS.VISITNUM" Value="201"/>
      <ItemData ItemOID="IT.RS.VISIT" Value="EARLY DISCONTINUATION RETRIEVAL"/>
      <ItemData ItemOID="IT.RS.EPOCH" Value="TREATMENT"/>
      <ItemData ItemOID="IT.RS.RSDTC" Value="2014-02-13"/>
      <ItemData ItemOID="IT.RS.RSDY" Value="169"/>
      <ItemData ItemOID="IT.RS.RSEVLINT" Value="-P1W"/>
    </ItemGroupData>
    <ItemGroupData ItemGroupOID="IG.RS" data:ItemGroupDataSeq="89">
      <ItemData ItemOID="IT.RS.STUDYID" Value="CDISCPILOT01"/>
      <ItemData ItemOID="IT.RS.DOMAIN" Value="RS"/>
      <ItemData ItemOID="IT.RS.USUBJID" Value="CDISC003"/>
      <ItemData ItemOID="IT.RS.RSSEQ" Value="36"/>
      <ItemData ItemOID="IT.RS.RSTESTCD" Value="HAMD101"/>
      <ItemData ItemOID="IT.RS.RSTEST" Value="HAMD1-Depressed Mood"/>
      <ItemData ItemOID="IT.RS.RSCAT" Value="HAMD 17"/>
      <ItemData ItemOID="IT.RS.RSORRES" Value="Absent."/>
      <ItemData ItemOID="IT.RS.RSSTRESC" Value="0"/>
      <ItemData ItemOID="IT.RS.RSSTRESN" Value="0"/>
      <ItemData ItemOID="IT.RS.RSLOBXFL" Value="Y"/>
      <ItemData ItemOID="IT.RS.VISITNUM" Value="3"/>
      <ItemData ItemOID="IT.RS.VISIT" Value="BASELINE"/>
      <ItemData ItemOID="IT.RS.EPOCH" Value="SCREENING"/>
      <ItemData ItemOID="IT.RS.RSDTC" Value="2013-08-29"/>
      <ItemData ItemOID="IT.RS.RSDY" Value="1"/>
      <ItemData ItemOID="IT.RS.RSEVLINT" Value="-P1W"/>
    </ItemGroupData>
    <ItemGroupData ItemGroupOID="IG.RS" data:ItemGroupDataSeq="90">
      <ItemData ItemOID="IT.RS.STUDYID" Value="CDISCPILOT01"/>
      <ItemData ItemOID="IT.RS.DOMAIN" Value="RS"/>
      <ItemData ItemOID="IT.RS.USUBJID" Value="CDISC004"/>
      <ItemData ItemOID="IT.RS.RSSEQ" Value="1"/>
      <ItemData ItemOID="IT.RS.RSTESTCD" Value="HAMD101"/>
      <ItemData ItemOID="IT.RS.RSTEST" Value="HAMD1-Depressed Mood"/>
      <ItemData ItemOID="IT.RS.RSCAT" Value="HAMD 17"/>
      <ItemData ItemOID="IT.RS.RSORRES" Value="These feeling states indicated only on questioning."/>
      <ItemData ItemOID="IT.RS.RSSTRESC" Value="1"/>
      <ItemData ItemOID="IT.RS.RSSTRESN" Value="1"/>
      <ItemData ItemOID="IT.RS.RSLOBXFL" Value="Y"/>
      <ItemData ItemOID="IT.RS.VISITNUM" Value="3"/>
      <ItemData ItemOID="IT.RS.VISIT" Value="BASELINE"/>
      <ItemData ItemOID="IT.RS.EPOCH" Value="SCREENING"/>
      <ItemData ItemOID="IT.RS.RSDTC" Value="2013-10-08"/>
      <ItemData ItemOID="IT.RS.RSDY" Value="1"/>
      <ItemData ItemOID="IT.RS.RSEVLINT" Value="-P1W"/>
    </ItemGroupData>
    <ItemGroupData ItemGroupOID="IG.RS" data:ItemGroupDataSeq="91">
      <ItemData ItemOID="IT.RS.STUDYID" Value="CDISCPILOT01"/>
      <ItemData ItemOID="IT.RS.DOMAIN" Value="RS"/>
      <ItemData ItemOID="IT.RS.USUBJID" Value="CDISC004"/>
      <ItemData ItemOID="IT.RS.RSSEQ" Value="2"/>
      <ItemData ItemOID="IT.RS.RSTESTCD" Value="HAMD102"/>
      <ItemData ItemOID="IT.RS.RSTEST" Value="HAMD1-Feelings of Guilt"/>
      <ItemData ItemOID="IT.RS.RSCAT" Value="HAMD 17"/>
      <ItemData ItemOID="IT.RS.RSORRES" Value="Ideas of guilt or rumination over past errors or sinful deeds."/>
      <ItemData ItemOID="IT.RS.RSSTRESC" Value="0"/>
      <ItemData ItemOID="IT.RS.RSSTRESN" Value="0"/>
      <ItemData ItemOID="IT.RS.RSLOBXFL" Value="Y"/>
      <ItemData ItemOID="IT.RS.VISITNUM" Value="3"/>
      <ItemData ItemOID="IT.RS.VISIT" Value="BASELINE"/>
      <ItemData ItemOID="IT.RS.EPOCH" Value="SCREENING"/>
      <ItemData ItemOID="IT.RS.RSDTC" Value="2013-10-08"/>
      <ItemData ItemOID="IT.RS.RSDY" Value="1"/>
      <ItemData ItemOID="IT.RS.RSEVLINT" Value="-P1W"/>
    </ItemGroupData>
    <ItemGroupData ItemGroupOID="IG.RS" data:ItemGroupDataSeq="92">
      <ItemData ItemOID="IT.RS.STUDYID" Value="CDISCPILOT01"/>
      <ItemData ItemOID="IT.RS.DOMAIN" Value="RS"/>
      <ItemData ItemOID="IT.RS.USUBJID" Value="CDISC004"/>
      <ItemData ItemOID="IT.RS.RSSEQ" Value="3"/>
      <ItemData ItemOID="IT.RS.RSTESTCD" Value="HAMD103"/>
      <ItemData ItemOID="IT.RS.RSTEST" Value="HAMD1-Suicide"/>
      <ItemData ItemOID="IT.RS.RSCAT" Value="HAMD 17"/>
      <ItemData ItemOID="IT.RS.RSORRES" Value="Wishes he/she were dead or any thoughts of possible death to self."/>
      <ItemData ItemOID="IT.RS.RSSTRESC" Value="2"/>
      <ItemData ItemOID="IT.RS.RSSTRESN" Value="2"/>
      <ItemData ItemOID="IT.RS.RSLOBXFL" Value="Y"/>
      <ItemData ItemOID="IT.RS.VISITNUM" Value="3"/>
      <ItemData ItemOID="IT.RS.VISIT" Value="BASELINE"/>
      <ItemData ItemOID="IT.RS.EPOCH" Value="SCREENING"/>
      <ItemData ItemOID="IT.RS.RSDTC" Value="2013-10-08"/>
      <ItemData ItemOID="IT.RS.RSDY" Value="1"/>
      <ItemData ItemOID="IT.RS.RSEVLINT" Value="-P1W"/>
    </ItemGroupData>
    <ItemGroupData ItemGroupOID="IG.RS" data:ItemGroupDataSeq="93">
      <ItemData ItemOID="IT.RS.STUDYID" Value="CDISCPILOT01"/>
      <ItemData ItemOID="IT.RS.DOMAIN" Value="RS"/>
      <ItemData ItemOID="IT.RS.USUBJID" Value="CDISC004"/>
      <ItemData ItemOID="IT.RS.RSSEQ" Value="4"/>
      <ItemData ItemOID="IT.RS.RSTESTCD" Value="HAMD104"/>
      <ItemData ItemOID="IT.RS.RSTEST" Value="HAMD1-Insomnia Early - Early Night"/>
      <ItemData ItemOID="IT.RS.RSCAT" Value="HAMD 17"/>
      <ItemData ItemOID="IT.RS.RSORRES" Value="Complains of occasional difficulty falling asleep, i.e. more than 1/2 hour"/>
      <ItemData ItemOID="IT.RS.RSSTRESC" Value="1"/>
      <ItemData ItemOID="IT.RS.RSSTRESN" Value="1"/>
      <ItemData ItemOID="IT.RS.RSLOBXFL" Value="Y"/>
      <ItemData ItemOID="IT.RS.VISITNUM" Value="3"/>
      <ItemData ItemOID="IT.RS.VISIT" Value="BASELINE"/>
      <ItemData ItemOID="IT.RS.EPOCH" Value="SCREENING"/>
      <ItemData ItemOID="IT.RS.RSDTC" Value="2013-10-08"/>
      <ItemData ItemOID="IT.RS.RSDY" Value="1"/>
      <ItemData ItemOID="IT.RS.RSEVLINT" Value="-P1W"/>
    </ItemGroupData>
    <ItemGroupData ItemGroupOID="IG.RS" data:ItemGroupDataSeq="94">
      <ItemData ItemOID="IT.RS.STUDYID" Value="CDISCPILOT01"/>
      <ItemData ItemOID="IT.RS.DOMAIN" Value="RS"/>
      <ItemData ItemOID="IT.RS.USUBJID" Value="CDISC004"/>
      <ItemData ItemOID="IT.RS.RSSEQ" Value="5"/>
      <ItemData ItemOID="IT.RS.RSTESTCD" Value="HAMD105"/>
      <ItemData ItemOID="IT.RS.RSTEST" Value="HAMD1-Insomnia Middle - Middle Night"/>
      <ItemData ItemOID="IT.RS.RSCAT" Value="HAMD 17"/>
      <ItemData ItemOID="IT.RS.RSORRES" Value="Patient complains of being restless and disturbed during the night."/>
      <ItemData ItemOID="IT.RS.RSSTRESC" Value="1"/>
      <ItemData ItemOID="IT.RS.RSSTRESN" Value="1"/>
      <ItemData ItemOID="IT.RS.RSLOBXFL" Value="Y"/>
      <ItemData ItemOID="IT.RS.VISITNUM" Value="3"/>
      <ItemData ItemOID="IT.RS.VISIT" Value="BASELINE"/>
      <ItemData ItemOID="IT.RS.EPOCH" Value="SCREENING"/>
      <ItemData ItemOID="IT.RS.RSDTC" Value="2013-10-08"/>
      <ItemData ItemOID="IT.RS.RSDY" Value="1"/>
      <ItemData ItemOID="IT.RS.RSEVLINT" Value="-P1W"/>
    </ItemGroupData>
    <ItemGroupData ItemGroupOID="IG.RS" data:ItemGroupDataSeq="95">
      <ItemData ItemOID="IT.RS.STUDYID" Value="CDISCPILOT01"/>
      <ItemData ItemOID="IT.RS.DOMAIN" Value="RS"/>
      <ItemData ItemOID="IT.RS.USUBJID" Value="CDISC004"/>
      <ItemData ItemOID="IT.RS.RSSEQ" Value="6"/>
      <ItemData ItemOID="IT.RS.RSTESTCD" Value="HAMD106"/>
      <ItemData ItemOID="IT.RS.RSTEST" Value="HAMD1-Insomnia Early Hours - Morning"/>
      <ItemData ItemOID="IT.RS.RSCAT" Value="HAMD 17"/>
      <ItemData ItemOID="IT.RS.RSORRES" Value="Waking in early hours of the morning but goes back to sleep."/>
      <ItemData ItemOID="IT.RS.RSSTRESC" Value="1"/>
      <ItemData ItemOID="IT.RS.RSSTRESN" Value="1"/>
      <ItemData ItemOID="IT.RS.RSLOBXFL" Value="Y"/>
      <ItemData ItemOID="IT.RS.VISITNUM" Value="3"/>
      <ItemData ItemOID="IT.RS.VISIT" Value="BASELINE"/>
      <ItemData ItemOID="IT.RS.EPOCH" Value="SCREENING"/>
      <ItemData ItemOID="IT.RS.RSDTC" Value="2013-10-08"/>
      <ItemData ItemOID="IT.RS.RSDY" Value="1"/>
      <ItemData ItemOID="IT.RS.RSEVLINT" Value="-P1W"/>
    </ItemGroupData>
    <ItemGroupData ItemGroupOID="IG.RS" data:ItemGroupDataSeq="96">
      <ItemData ItemOID="IT.RS.STUDYID" Value="CDISCPILOT01"/>
      <ItemData ItemOID="IT.RS.DOMAIN" Value="RS"/>
      <ItemData ItemOID="IT.RS.USUBJID" Value="CDISC004"/>
      <ItemData ItemOID="IT.RS.RSSEQ" Value="7"/>
      <ItemData ItemOID="IT.RS.RSTESTCD" Value="HAMD107"/>
      <ItemData ItemOID="IT.RS.RSTEST" Value="HAMD1-Work and Activities"/>
      <ItemData ItemOID="IT.RS.RSCAT" Value="HAMD 17"/>
      <ItemData ItemOID="IT.RS.RSORRES" Value="Loss of interest in activity, hobbies or work - either directly reported by the patient or indirect in listlessness, indecision and vacillation (feels he/she has to push self to work or activities)."/>
      <ItemData ItemOID="IT.RS.RSSTRESC" Value="2"/>
      <ItemData ItemOID="IT.RS.RSSTRESN" Value="2"/>
      <ItemData ItemOID="IT.RS.RSLOBXFL" Value="Y"/>
      <ItemData ItemOID="IT.RS.VISITNUM" Value="3"/>
      <ItemData ItemOID="IT.RS.VISIT" Value="BASELINE"/>
      <ItemData ItemOID="IT.RS.EPOCH" Value="SCREENING"/>
      <ItemData ItemOID="IT.RS.RSDTC" Value="2013-10-08"/>
      <ItemData ItemOID="IT.RS.RSDY" Value="1"/>
      <ItemData ItemOID="IT.RS.RSEVLINT" Value="-P1W"/>
    </ItemGroupData>
    <ItemGroupData ItemGroupOID="IG.RS" data:ItemGroupDataSeq="97">
      <ItemData ItemOID="IT.RS.STUDYID" Value="CDISCPILOT01"/>
      <ItemData ItemOID="IT.RS.DOMAIN" Value="RS"/>
      <ItemData ItemOID="IT.RS.USUBJID" Value="CDISC004"/>
      <ItemData ItemOID="IT.RS.RSSEQ" Value="8"/>
      <ItemData ItemOID="IT.RS.RSTESTCD" Value="HAMD108"/>
      <ItemData ItemOID="IT.RS.RSTEST" Value="HAMD1-Retardation"/>
      <ItemData ItemOID="IT.RS.RSCAT" Value="HAMD 17"/>
      <ItemData ItemOID="IT.RS.RSORRES" Value="Slight retardation during the interview."/>
      <ItemData ItemOID="IT.RS.RSSTRESC" Value="1"/>
      <ItemData ItemOID="IT.RS.RSSTRESN" Value="1"/>
      <ItemData ItemOID="IT.RS.RSLOBXFL" Value="Y"/>
      <ItemData ItemOID="IT.RS.VISITNUM" Value="3"/>
      <ItemData ItemOID="IT.RS.VISIT" Value="BASELINE"/>
      <ItemData ItemOID="IT.RS.EPOCH" Value="SCREENING"/>
      <ItemData ItemOID="IT.RS.RSDTC" Value="2013-10-08"/>
      <ItemData ItemOID="IT.RS.RSDY" Value="1"/>
      <ItemData ItemOID="IT.RS.RSEVLINT" Value="-P1W"/>
    </ItemGroupData>
    <ItemGroupData ItemGroupOID="IG.RS" data:ItemGroupDataSeq="98">
      <ItemData ItemOID="IT.RS.STUDYID" Value="CDISCPILOT01"/>
      <ItemData ItemOID="IT.RS.DOMAIN" Value="RS"/>
      <ItemData ItemOID="IT.RS.USUBJID" Value="CDISC004"/>
      <ItemData ItemOID="IT.RS.RSSEQ" Value="9"/>
      <ItemData ItemOID="IT.RS.RSTESTCD" Value="HAMD109"/>
      <ItemData ItemOID="IT.RS.RSTEST" Value="HAMD1-Agitation"/>
      <ItemData ItemOID="IT.RS.RSCAT" Value="HAMD 17"/>
      <ItemData ItemOID="IT.RS.RSORRES" Value="None."/>
      <ItemData ItemOID="IT.RS.RSSTRESC" Value="0"/>
      <ItemData ItemOID="IT.RS.RSSTRESN" Value="0"/>
      <ItemData ItemOID="IT.RS.RSLOBXFL" Value="Y"/>
      <ItemData ItemOID="IT.RS.VISITNUM" Value="3"/>
      <ItemData ItemOID="IT.RS.VISIT" Value="BASELINE"/>
      <ItemData ItemOID="IT.RS.EPOCH" Value="SCREENING"/>
      <ItemData ItemOID="IT.RS.RSDTC" Value="2013-10-08"/>
      <ItemData ItemOID="IT.RS.RSDY" Value="1"/>
      <ItemData ItemOID="IT.RS.RSEVLINT" Value="-P1W"/>
    </ItemGroupData>
    <ItemGroupData ItemGroupOID="IG.RS" data:ItemGroupDataSeq="99">
      <ItemData ItemOID="IT.RS.STUDYID" Value="CDISCPILOT01"/>
      <ItemData ItemOID="IT.RS.DOMAIN" Value="RS"/>
      <ItemData ItemOID="IT.RS.USUBJID" Value="CDISC004"/>
      <ItemData ItemOID="IT.RS.RSSEQ" Value="10"/>
      <ItemData ItemOID="IT.RS.RSTESTCD" Value="HAMD110"/>
      <ItemData ItemOID="IT.RS.RSTEST" Value="HAMD1-Anxiety Psychic"/>
      <ItemData ItemOID="IT.RS.RSCAT" Value="HAMD 17"/>
      <ItemData ItemOID="IT.RS.RSORRES" Value="Subjective tension and irritability."/>
      <ItemData ItemOID="IT.RS.RSSTRESC" Value="1"/>
      <ItemData ItemOID="IT.RS.RSSTRESN" Value="1"/>
      <ItemData ItemOID="IT.RS.RSLOBXFL" Value="Y"/>
      <ItemData ItemOID="IT.RS.VISITNUM" Value="3"/>
      <ItemData ItemOID="IT.RS.VISIT" Value="BASELINE"/>
      <ItemData ItemOID="IT.RS.EPOCH" Value="SCREENING"/>
      <ItemData ItemOID="IT.RS.RSDTC" Value="2013-10-08"/>
      <ItemData ItemOID="IT.RS.RSDY" Value="1"/>
      <ItemData ItemOID="IT.RS.RSEVLINT" Value="-P1W"/>
    </ItemGroupData>
    <ItemGroupData ItemGroupOID="IG.RS" data:ItemGroupDataSeq="100">
      <ItemData ItemOID="IT.RS.STUDYID" Value="CDISCPILOT01"/>
      <ItemData ItemOID="IT.RS.DOMAIN" Value="RS"/>
      <ItemData ItemOID="IT.RS.USUBJID" Value="CDISC004"/>
      <ItemData ItemOID="IT.RS.RSSEQ" Value="11"/>
      <ItemData ItemOID="IT.RS.RSTESTCD" Value="HAMD111"/>
      <ItemData ItemOID="IT.RS.RSTEST" Value="HAMD1-Anxiety Somatic"/>
      <ItemData ItemOID="IT.RS.RSCAT" Value="HAMD 17"/>
      <ItemData ItemOID="IT.RS.RSORRES" Value="Mild."/>
      <ItemData ItemOID="IT.RS.RSSTRESC" Value="1"/>
      <ItemData ItemOID="IT.RS.RSSTRESN" Value="1"/>
      <ItemData ItemOID="IT.RS.RSLOBXFL" Value="Y"/>
      <ItemData ItemOID="IT.RS.VISITNUM" Value="3"/>
      <ItemData ItemOID="IT.RS.VISIT" Value="BASELINE"/>
      <ItemData ItemOID="IT.RS.EPOCH" Value="SCREENING"/>
      <ItemData ItemOID="IT.RS.RSDTC" Value="2013-10-08"/>
      <ItemData ItemOID="IT.RS.RSDY" Value="1"/>
      <ItemData ItemOID="IT.RS.RSEVLINT" Value="-P1W"/>
    </ItemGroupData>
    <ItemGroupData ItemGroupOID="IG.RS" data:ItemGroupDataSeq="101">
      <ItemData ItemOID="IT.RS.STUDYID" Value="CDISCPILOT01"/>
      <ItemData ItemOID="IT.RS.DOMAIN" Value="RS"/>
      <ItemData ItemOID="IT.RS.USUBJID" Value="CDISC004"/>
      <ItemData ItemOID="IT.RS.RSSEQ" Value="12"/>
      <ItemData ItemOID="IT.RS.RSTESTCD" Value="HAMD112"/>
      <ItemData ItemOID="IT.RS.RSTEST" Value="HAMD1-Somatic Symptoms GI"/>
      <ItemData ItemOID="IT.RS.RSCAT" Value="HAMD 17"/>
      <ItemData ItemOID="IT.RS.RSORRES" Value="Loss of appetite but eating without staff encouragement. Heavy feelings in abdomen."/>
      <ItemData ItemOID="IT.RS.RSSTRESC" Value="1"/>
      <ItemData ItemOID="IT.RS.RSSTRESN" Value="1"/>
      <ItemData ItemOID="IT.RS.RSLOBXFL" Value="Y"/>
      <ItemData ItemOID="IT.RS.VISITNUM" Value="3"/>
      <ItemData ItemOID="IT.RS.VISIT" Value="BASELINE"/>
      <ItemData ItemOID="IT.RS.EPOCH" Value="SCREENING"/>
      <ItemData ItemOID="IT.RS.RSDTC" Value="2013-10-08"/>
      <ItemData ItemOID="IT.RS.RSDY" Value="1"/>
      <ItemData ItemOID="IT.RS.RSEVLINT" Value="-P1W"/>
    </ItemGroupData>
    <ItemGroupData ItemGroupOID="IG.RS" data:ItemGroupDataSeq="102">
      <ItemData ItemOID="IT.RS.STUDYID" Value="CDISCPILOT01"/>
      <ItemData ItemOID="IT.RS.DOMAIN" Value="RS"/>
      <ItemData ItemOID="IT.RS.USUBJID" Value="CDISC004"/>
      <ItemData ItemOID="IT.RS.RSSEQ" Value="13"/>
      <ItemData ItemOID="IT.RS.RSTESTCD" Value="HAMD113"/>
      <ItemData ItemOID="IT.RS.RSTEST" Value="HAMD1-General Somatic Symptoms"/>
      <ItemData ItemOID="IT.RS.RSCAT" Value="HAMD 17"/>
      <ItemData ItemOID="IT.RS.RSORRES" Value="Heaviness in limbs, back or head. Backaches, headaches, muscle aches. Loss of energy and fatigability."/>
      <ItemData ItemOID="IT.RS.RSSTRESC" Value="1"/>
      <ItemData ItemOID="IT.RS.RSSTRESN" Value="1"/>
      <ItemData ItemOID="IT.RS.RSLOBXFL" Value="Y"/>
      <ItemData ItemOID="IT.RS.VISITNUM" Value="3"/>
      <ItemData ItemOID="IT.RS.VISIT" Value="BASELINE"/>
      <ItemData ItemOID="IT.RS.EPOCH" Value="SCREENING"/>
      <ItemData ItemOID="IT.RS.RSDTC" Value="2013-10-08"/>
      <ItemData ItemOID="IT.RS.RSDY" Value="1"/>
      <ItemData ItemOID="IT.RS.RSEVLINT" Value="-P1W"/>
    </ItemGroupData>
    <ItemGroupData ItemGroupOID="IG.RS" data:ItemGroupDataSeq="103">
      <ItemData ItemOID="IT.RS.STUDYID" Value="CDISCPILOT01"/>
      <ItemData ItemOID="IT.RS.DOMAIN" Value="RS"/>
      <ItemData ItemOID="IT.RS.USUBJID" Value="CDISC004"/>
      <ItemData ItemOID="IT.RS.RSSEQ" Value="14"/>
      <ItemData ItemOID="IT.RS.RSTESTCD" Value="HAMD114"/>
      <ItemData ItemOID="IT.RS.RSTEST" Value="HAMD1-Genital Symptoms"/>
      <ItemData ItemOID="IT.RS.RSCAT" Value="HAMD 17"/>
      <ItemData ItemOID="IT.RS.RSORRES" Value="Mild."/>
      <ItemData ItemOID="IT.RS.RSSTRESC" Value="1"/>
      <ItemData ItemOID="IT.RS.RSSTRESN" Value="1"/>
      <ItemData ItemOID="IT.RS.RSLOBXFL" Value="Y"/>
      <ItemData ItemOID="IT.RS.VISITNUM" Value="3"/>
      <ItemData ItemOID="IT.RS.VISIT" Value="BASELINE"/>
      <ItemData ItemOID="IT.RS.EPOCH" Value="SCREENING"/>
      <ItemData ItemOID="IT.RS.RSDTC" Value="2013-10-08"/>
      <ItemData ItemOID="IT.RS.RSDY" Value="1"/>
      <ItemData ItemOID="IT.RS.RSEVLINT" Value="-P1W"/>
    </ItemGroupData>
    <ItemGroupData ItemGroupOID="IG.RS" data:ItemGroupDataSeq="104">
      <ItemData ItemOID="IT.RS.STUDYID" Value="CDISCPILOT01"/>
      <ItemData ItemOID="IT.RS.DOMAIN" Value="RS"/>
      <ItemData ItemOID="IT.RS.USUBJID" Value="CDISC004"/>
      <ItemData ItemOID="IT.RS.RSSEQ" Value="16"/>
      <ItemData ItemOID="IT.RS.RSTESTCD" Value="HAMD116B"/>
      <ItemData ItemOID="IT.RS.RSTEST" Value="HAMD1-Loss of WT According to WK Meas"/>
      <ItemData ItemOID="IT.RS.RSCAT" Value="HAMD 17"/>
      <ItemData ItemOID="IT.RS.RSORRES" Value="Probable weight loss associated with present illness."/>
      <ItemData ItemOID="IT.RS.RSSTRESC" Value="1"/>
      <ItemData ItemOID="IT.RS.RSSTRESN" Value="1"/>
      <ItemData ItemOID="IT.RS.RSLOBXFL" Value="Y"/>
      <ItemData ItemOID="IT.RS.VISITNUM" Value="3"/>
      <ItemData ItemOID="IT.RS.VISIT" Value="BASELINE"/>
      <ItemData ItemOID="IT.RS.EPOCH" Value="SCREENING"/>
      <ItemData ItemOID="IT.RS.RSDTC" Value="2013-10-08"/>
      <ItemData ItemOID="IT.RS.RSDY" Value="1"/>
      <ItemData ItemOID="IT.RS.RSEVLINT" Value="-P1W"/>
    </ItemGroupData>
    <ItemGroupData ItemGroupOID="IG.RS" data:ItemGroupDataSeq="105">
      <ItemData ItemOID="IT.RS.STUDYID" Value="CDISCPILOT01"/>
      <ItemData ItemOID="IT.RS.DOMAIN" Value="RS"/>
      <ItemData ItemOID="IT.RS.USUBJID" Value="CDISC004"/>
      <ItemData ItemOID="IT.RS.RSSEQ" Value="17"/>
      <ItemData ItemOID="IT.RS.RSTESTCD" Value="HAMD117"/>
      <ItemData ItemOID="IT.RS.RSTEST" Value="HAMD1-Insight"/>
      <ItemData ItemOID="IT.RS.RSCAT" Value="HAMD 17"/>
      <ItemData ItemOID="IT.RS.RSORRES" Value="Acknowledges being depressed and ill."/>
      <ItemData ItemOID="IT.RS.RSSTRESC" Value="0"/>
      <ItemData ItemOID="IT.RS.RSSTRESN" Value="0"/>
      <ItemData ItemOID="IT.RS.RSLOBXFL" Value="Y"/>
      <ItemData ItemOID="IT.RS.VISITNUM" Value="3"/>
      <ItemData ItemOID="IT.RS.VISIT" Value="BASELINE"/>
      <ItemData ItemOID="IT.RS.EPOCH" Value="SCREENING"/>
      <ItemData ItemOID="IT.RS.RSDTC" Value="2013-10-08"/>
      <ItemData ItemOID="IT.RS.RSDY" Value="1"/>
      <ItemData ItemOID="IT.RS.RSEVLINT" Value="-P1W"/>
    </ItemGroupData>
    <ItemGroupData ItemGroupOID="IG.RS" data:ItemGroupDataSeq="106">
      <ItemData ItemOID="IT.RS.STUDYID" Value="CDISCPILOT01"/>
      <ItemData ItemOID="IT.RS.DOMAIN" Value="RS"/>
      <ItemData ItemOID="IT.RS.USUBJID" Value="CDISC004"/>
      <ItemData ItemOID="IT.RS.RSSEQ" Value="18"/>
      <ItemData ItemOID="IT.RS.RSTESTCD" Value="HAMD118"/>
      <ItemData ItemOID="IT.RS.RSTEST" Value="HAMD1-Total Score"/>
      <ItemData ItemOID="IT.RS.RSCAT" Value="HAMD 17"/>
      <ItemData ItemOID="IT.RS.RSORRES" Value="16"/>
      <ItemData ItemOID="IT.RS.RSSTRESC" Value="16"/>
      <ItemData ItemOID="IT.RS.RSSTRESN" Value="16"/>
      <ItemData ItemOID="IT.RS.RSLOBXFL" Value="Y"/>
      <ItemData ItemOID="IT.RS.VISITNUM" Value="3"/>
      <ItemData ItemOID="IT.RS.VISIT" Value="BASELINE"/>
      <ItemData ItemOID="IT.RS.EPOCH" Value="SCREENING"/>
      <ItemData ItemOID="IT.RS.RSDTC" Value="2013-10-08"/>
      <ItemData ItemOID="IT.RS.RSDY" Value="1"/>
      <ItemData ItemOID="IT.RS.RSEVLINT" Value="-P1W"/>
    </ItemGroupData>
    <ItemGroupData ItemGroupOID="IG.RS" data:ItemGroupDataSeq="107">
      <ItemData ItemOID="IT.RS.STUDYID" Value="CDISCPILOT01"/>
      <ItemData ItemOID="IT.RS.DOMAIN" Value="RS"/>
      <ItemData ItemOID="IT.RS.USUBJID" Value="CDISC007"/>
      <ItemData ItemOID="IT.RS.RSSEQ" Value="1"/>
      <ItemData ItemOID="IT.RS.RSTESTCD" Value="HAMD101"/>
      <ItemData ItemOID="IT.RS.RSTEST" Value="HAMD1-Depressed Mood"/>
      <ItemData ItemOID="IT.RS.RSCAT" Value="HAMD 17"/>
      <ItemData ItemOID="IT.RS.RSORRES" Value="Absent."/>
      <ItemData ItemOID="IT.RS.RSSTRESC" Value="0"/>
      <ItemData ItemOID="IT.RS.RSSTRESN" Value="0"/>
      <ItemData ItemOID="IT.RS.VISITNUM" Value="201"/>
      <ItemData ItemOID="IT.RS.VISIT" Value="EARLY DISCONTINUATION RETRIEVAL"/>
      <ItemData ItemOID="IT.RS.EPOCH" Value="TREATMENT"/>
      <ItemData ItemOID="IT.RS.RSDTC" Value="2013-06-20"/>
      <ItemData ItemOID="IT.RS.RSDY" Value="167"/>
      <ItemData ItemOID="IT.RS.RSEVLINT" Value="-P1W"/>
    </ItemGroupData>
    <ItemGroupData ItemGroupOID="IG.RS" data:ItemGroupDataSeq="108">
      <ItemData ItemOID="IT.RS.STUDYID" Value="CDISCPILOT01"/>
      <ItemData ItemOID="IT.RS.DOMAIN" Value="RS"/>
      <ItemData ItemOID="IT.RS.USUBJID" Value="CDISC007"/>
      <ItemData ItemOID="IT.RS.RSSEQ" Value="2"/>
      <ItemData ItemOID="IT.RS.RSTESTCD" Value="HAMD102"/>
      <ItemData ItemOID="IT.RS.RSTEST" Value="HAMD1-Feelings of Guilt"/>
      <ItemData ItemOID="IT.RS.RSCAT" Value="HAMD 17"/>
      <ItemData ItemOID="IT.RS.RSORRES" Value="Absent."/>
      <ItemData ItemOID="IT.RS.RSSTRESC" Value="0"/>
      <ItemData ItemOID="IT.RS.RSSTRESN" Value="0"/>
      <ItemData ItemOID="IT.RS.VISITNUM" Value="201"/>
      <ItemData ItemOID="IT.RS.VISIT" Value="EARLY DISCONTINUATION RETRIEVAL"/>
      <ItemData ItemOID="IT.RS.EPOCH" Value="TREATMENT"/>
      <ItemData ItemOID="IT.RS.RSDTC" Value="2013-06-20"/>
      <ItemData ItemOID="IT.RS.RSDY" Value="167"/>
      <ItemData ItemOID="IT.RS.RSEVLINT" Value="-P1W"/>
    </ItemGroupData>
    <ItemGroupData ItemGroupOID="IG.RS" data:ItemGroupDataSeq="109">
      <ItemData ItemOID="IT.RS.STUDYID" Value="CDISCPILOT01"/>
      <ItemData ItemOID="IT.RS.DOMAIN" Value="RS"/>
      <ItemData ItemOID="IT.RS.USUBJID" Value="CDISC007"/>
      <ItemData ItemOID="IT.RS.RSSEQ" Value="3"/>
      <ItemData ItemOID="IT.RS.RSTESTCD" Value="HAMD103"/>
      <ItemData ItemOID="IT.RS.RSTEST" Value="HAMD1-Suicide"/>
      <ItemData ItemOID="IT.RS.RSCAT" Value="HAMD 17"/>
      <ItemData ItemOID="IT.RS.RSORRES" Value="Absent."/>
      <ItemData ItemOID="IT.RS.RSSTRESC" Value="0"/>
      <ItemData ItemOID="IT.RS.RSSTRESN" Value="0"/>
      <ItemData ItemOID="IT.RS.VISITNUM" Value="201"/>
      <ItemData ItemOID="IT.RS.VISIT" Value="EARLY DISCONTINUATION RETRIEVAL"/>
      <ItemData ItemOID="IT.RS.EPOCH" Value="TREATMENT"/>
      <ItemData ItemOID="IT.RS.RSDTC" Value="2013-06-20"/>
      <ItemData ItemOID="IT.RS.RSDY" Value="167"/>
      <ItemData ItemOID="IT.RS.RSEVLINT" Value="-P1W"/>
    </ItemGroupData>
    <ItemGroupData ItemGroupOID="IG.RS" data:ItemGroupDataSeq="110">
      <ItemData ItemOID="IT.RS.STUDYID" Value="CDISCPILOT01"/>
      <ItemData ItemOID="IT.RS.DOMAIN" Value="RS"/>
      <ItemData ItemOID="IT.RS.USUBJID" Value="CDISC007"/>
      <ItemData ItemOID="IT.RS.RSSEQ" Value="4"/>
      <ItemData ItemOID="IT.RS.RSTESTCD" Value="HAMD104"/>
      <ItemData ItemOID="IT.RS.RSTEST" Value="HAMD1-Insomnia Early - Early Night"/>
      <ItemData ItemOID="IT.RS.RSCAT" Value="HAMD 17"/>
      <ItemData ItemOID="IT.RS.RSORRES" Value="No difficulty falling asleep."/>
      <ItemData ItemOID="IT.RS.RSSTRESC" Value="0"/>
      <ItemData ItemOID="IT.RS.RSSTRESN" Value="0"/>
      <ItemData ItemOID="IT.RS.VISITNUM" Value="201"/>
      <ItemData ItemOID="IT.RS.VISIT" Value="EARLY DISCONTINUATION RETRIEVAL"/>
      <ItemData ItemOID="IT.RS.EPOCH" Value="TREATMENT"/>
      <ItemData ItemOID="IT.RS.RSDTC" Value="2013-06-20"/>
      <ItemData ItemOID="IT.RS.RSDY" Value="167"/>
      <ItemData ItemOID="IT.RS.RSEVLINT" Value="-P1W"/>
    </ItemGroupData>
    <ItemGroupData ItemGroupOID="IG.RS" data:ItemGroupDataSeq="111">
      <ItemData ItemOID="IT.RS.STUDYID" Value="CDISCPILOT01"/>
      <ItemData ItemOID="IT.RS.DOMAIN" Value="RS"/>
      <ItemData ItemOID="IT.RS.USUBJID" Value="CDISC007"/>
      <ItemData ItemOID="IT.RS.RSSEQ" Value="5"/>
      <ItemData ItemOID="IT.RS.RSTESTCD" Value="HAMD105"/>
      <ItemData ItemOID="IT.RS.RSTEST" Value="HAMD1-Insomnia Middle - Middle Night"/>
      <ItemData ItemOID="IT.RS.RSCAT" Value="HAMD 17"/>
      <ItemData ItemOID="IT.RS.RSORRES" Value="No difficulty."/>
      <ItemData ItemOID="IT.RS.RSSTRESC" Value="0"/>
      <ItemData ItemOID="IT.RS.RSSTRESN" Value="0"/>
      <ItemData ItemOID="IT.RS.VISITNUM" Value="201"/>
      <ItemData ItemOID="IT.RS.VISIT" Value="EARLY DISCONTINUATION RETRIEVAL"/>
      <ItemData ItemOID="IT.RS.EPOCH" Value="TREATMENT"/>
      <ItemData ItemOID="IT.RS.RSDTC" Value="2013-06-20"/>
      <ItemData ItemOID="IT.RS.RSDY" Value="167"/>
      <ItemData ItemOID="IT.RS.RSEVLINT" Value="-P1W"/>
    </ItemGroupData>
    <ItemGroupData ItemGroupOID="IG.RS" data:ItemGroupDataSeq="112">
      <ItemData ItemOID="IT.RS.STUDYID" Value="CDISCPILOT01"/>
      <ItemData ItemOID="IT.RS.DOMAIN" Value="RS"/>
      <ItemData ItemOID="IT.RS.USUBJID" Value="CDISC007"/>
      <ItemData ItemOID="IT.RS.RSSEQ" Value="6"/>
      <ItemData ItemOID="IT.RS.RSTESTCD" Value="HAMD106"/>
      <ItemData ItemOID="IT.RS.RSTEST" Value="HAMD1-Insomnia Early Hours - Morning"/>
      <ItemData ItemOID="IT.RS.RSCAT" Value="HAMD 17"/>
      <ItemData ItemOID="IT.RS.RSORRES" Value="Waking in early hours of the morning but goes back to sleep."/>
      <ItemData ItemOID="IT.RS.RSSTRESC" Value="1"/>
      <ItemData ItemOID="IT.RS.RSSTRESN" Value="1"/>
      <ItemData ItemOID="IT.RS.VISITNUM" Value="201"/>
      <ItemData ItemOID="IT.RS.VISIT" Value="EARLY DISCONTINUATION RETRIEVAL"/>
      <ItemData ItemOID="IT.RS.EPOCH" Value="TREATMENT"/>
      <ItemData ItemOID="IT.RS.RSDTC" Value="2013-06-20"/>
      <ItemData ItemOID="IT.RS.RSDY" Value="167"/>
      <ItemData ItemOID="IT.RS.RSEVLINT" Value="-P1W"/>
    </ItemGroupData>
    <ItemGroupData ItemGroupOID="IG.RS" data:ItemGroupDataSeq="113">
      <ItemData ItemOID="IT.RS.STUDYID" Value="CDISCPILOT01"/>
      <ItemData ItemOID="IT.RS.DOMAIN" Value="RS"/>
      <ItemData ItemOID="IT.RS.USUBJID" Value="CDISC007"/>
      <ItemData ItemOID="IT.RS.RSSEQ" Value="7"/>
      <ItemData ItemOID="IT.RS.RSTESTCD" Value="HAMD107"/>
      <ItemData ItemOID="IT.RS.RSTEST" Value="HAMD1-Work and Activities"/>
      <ItemData ItemOID="IT.RS.RSCAT" Value="HAMD 17"/>
      <ItemData ItemOID="IT.RS.RSORRES" Value="Thoughts and feelings of incapacity, fatigue or weakness related to activities, work or hobbies."/>
      <ItemData ItemOID="IT.RS.RSSTRESC" Value="1"/>
      <ItemData ItemOID="IT.RS.RSSTRESN" Value="1"/>
      <ItemData ItemOID="IT.RS.VISITNUM" Value="201"/>
      <ItemData ItemOID="IT.RS.VISIT" Value="EARLY DISCONTINUATION RETRIEVAL"/>
      <ItemData ItemOID="IT.RS.EPOCH" Value="TREATMENT"/>
      <ItemData ItemOID="IT.RS.RSDTC" Value="2013-06-20"/>
      <ItemData ItemOID="IT.RS.RSDY" Value="167"/>
      <ItemData ItemOID="IT.RS.RSEVLINT" Value="-P1W"/>
    </ItemGroupData>
    <ItemGroupData ItemGroupOID="IG.RS" data:ItemGroupDataSeq="114">
      <ItemData ItemOID="IT.RS.STUDYID" Value="CDISCPILOT01"/>
      <ItemData ItemOID="IT.RS.DOMAIN" Value="RS"/>
      <ItemData ItemOID="IT.RS.USUBJID" Value="CDISC007"/>
      <ItemData ItemOID="IT.RS.RSSEQ" Value="8"/>
      <ItemData ItemOID="IT.RS.RSTESTCD" Value="HAMD108"/>
      <ItemData ItemOID="IT.RS.RSTEST" Value="HAMD1-Retardation"/>
      <ItemData ItemOID="IT.RS.RSCAT" Value="HAMD 17"/>
      <ItemData ItemOID="IT.RS.RSORRES" Value="Slight retardation during the interview."/>
      <ItemData ItemOID="IT.RS.RSSTRESC" Value="1"/>
      <ItemData ItemOID="IT.RS.RSSTRESN" Value="1"/>
      <ItemData ItemOID="IT.RS.VISITNUM" Value="201"/>
      <ItemData ItemOID="IT.RS.VISIT" Value="EARLY DISCONTINUATION RETRIEVAL"/>
      <ItemData ItemOID="IT.RS.EPOCH" Value="TREATMENT"/>
      <ItemData ItemOID="IT.RS.RSDTC" Value="2013-06-20"/>
      <ItemData ItemOID="IT.RS.RSDY" Value="167"/>
      <ItemData ItemOID="IT.RS.RSEVLINT" Value="-P1W"/>
    </ItemGroupData>
    <ItemGroupData ItemGroupOID="IG.RS" data:ItemGroupDataSeq="115">
      <ItemData ItemOID="IT.RS.STUDYID" Value="CDISCPILOT01"/>
      <ItemData ItemOID="IT.RS.DOMAIN" Value="RS"/>
      <ItemData ItemOID="IT.RS.USUBJID" Value="CDISC007"/>
      <ItemData ItemOID="IT.RS.RSSEQ" Value="9"/>
      <ItemData ItemOID="IT.RS.RSTESTCD" Value="HAMD109"/>
      <ItemData ItemOID="IT.RS.RSTEST" Value="HAMD1-Agitation"/>
      <ItemData ItemOID="IT.RS.RSCAT" Value="HAMD 17"/>
      <ItemData ItemOID="IT.RS.RSORRES" Value="None."/>
      <ItemData ItemOID="IT.RS.RSSTRESC" Value="0"/>
      <ItemData ItemOID="IT.RS.RSSTRESN" Value="0"/>
      <ItemData ItemOID="IT.RS.VISITNUM" Value="201"/>
      <ItemData ItemOID="IT.RS.VISIT" Value="EARLY DISCONTINUATION RETRIEVAL"/>
      <ItemData ItemOID="IT.RS.EPOCH" Value="TREATMENT"/>
      <ItemData ItemOID="IT.RS.RSDTC" Value="2013-06-20"/>
      <ItemData ItemOID="IT.RS.RSDY" Value="167"/>
      <ItemData ItemOID="IT.RS.RSEVLINT" Value="-P1W"/>
    </ItemGroupData>
    <ItemGroupData ItemGroupOID="IG.RS" data:ItemGroupDataSeq="116">
      <ItemData ItemOID="IT.RS.STUDYID" Value="CDISCPILOT01"/>
      <ItemData ItemOID="IT.RS.DOMAIN" Value="RS"/>
      <ItemData ItemOID="IT.RS.USUBJID" Value="CDISC007"/>
      <ItemData ItemOID="IT.RS.RSSEQ" Value="10"/>
      <ItemData ItemOID="IT.RS.RSTESTCD" Value="HAMD110"/>
      <ItemData ItemOID="IT.RS.RSTEST" Value="HAMD1-Anxiety Psychic"/>
      <ItemData ItemOID="IT.RS.RSCAT" Value="HAMD 17"/>
      <ItemData ItemOID="IT.RS.RSORRES" Value="No difficulty."/>
      <ItemData ItemOID="IT.RS.RSSTRESC" Value="0"/>
      <ItemData ItemOID="IT.RS.RSSTRESN" Value="0"/>
      <ItemData ItemOID="IT.RS.VISITNUM" Value="201"/>
      <ItemData ItemOID="IT.RS.VISIT" Value="EARLY DISCONTINUATION RETRIEVAL"/>
      <ItemData ItemOID="IT.RS.EPOCH" Value="TREATMENT"/>
      <ItemData ItemOID="IT.RS.RSDTC" Value="2013-06-20"/>
      <ItemData ItemOID="IT.RS.RSDY" Value="167"/>
      <ItemData ItemOID="IT.RS.RSEVLINT" Value="-P1W"/>
    </ItemGroupData>
    <ItemGroupData ItemGroupOID="IG.RS" data:ItemGroupDataSeq="117">
      <ItemData ItemOID="IT.RS.STUDYID" Value="CDISCPILOT01"/>
      <ItemData ItemOID="IT.RS.DOMAIN" Value="RS"/>
      <ItemData ItemOID="IT.RS.USUBJID" Value="CDISC007"/>
      <ItemData ItemOID="IT.RS.RSSEQ" Value="11"/>
      <ItemData ItemOID="IT.RS.RSTESTCD" Value="HAMD111"/>
      <ItemData ItemOID="IT.RS.RSTEST" Value="HAMD1-Anxiety Somatic"/>
      <ItemData ItemOID="IT.RS.RSCAT" Value="HAMD 17"/>
      <ItemData ItemOID="IT.RS.RSORRES" Value="Absent."/>
      <ItemData ItemOID="IT.RS.RSSTRESC" Value="0"/>
      <ItemData ItemOID="IT.RS.RSSTRESN" Value="0"/>
      <ItemData ItemOID="IT.RS.VISITNUM" Value="201"/>
      <ItemData ItemOID="IT.RS.VISIT" Value="EARLY DISCONTINUATION RETRIEVAL"/>
      <ItemData ItemOID="IT.RS.EPOCH" Value="TREATMENT"/>
      <ItemData ItemOID="IT.RS.RSDTC" Value="2013-06-20"/>
      <ItemData ItemOID="IT.RS.RSDY" Value="167"/>
      <ItemData ItemOID="IT.RS.RSEVLINT" Value="-P1W"/>
    </ItemGroupData>
    <ItemGroupData ItemGroupOID="IG.RS" data:ItemGroupDataSeq="118">
      <ItemData ItemOID="IT.RS.STUDYID" Value="CDISCPILOT01"/>
      <ItemData ItemOID="IT.RS.DOMAIN" Value="RS"/>
      <ItemData ItemOID="IT.RS.USUBJID" Value="CDISC007"/>
      <ItemData ItemOID="IT.RS.RSSEQ" Value="12"/>
      <ItemData ItemOID="IT.RS.RSTESTCD" Value="HAMD112"/>
      <ItemData ItemOID="IT.RS.RSTEST" Value="HAMD1-Somatic Symptoms GI"/>
      <ItemData ItemOID="IT.RS.RSCAT" Value="HAMD 17"/>
      <ItemData ItemOID="IT.RS.RSORRES" Value="None."/>
      <ItemData ItemOID="IT.RS.RSSTRESC" Value="0"/>
      <ItemData ItemOID="IT.RS.RSSTRESN" Value="0"/>
      <ItemData ItemOID="IT.RS.VISITNUM" Value="201"/>
      <ItemData ItemOID="IT.RS.VISIT" Value="EARLY DISCONTINUATION RETRIEVAL"/>
      <ItemData ItemOID="IT.RS.EPOCH" Value="TREATMENT"/>
      <ItemData ItemOID="IT.RS.RSDTC" Value="2013-06-20"/>
      <ItemData ItemOID="IT.RS.RSDY" Value="167"/>
      <ItemData ItemOID="IT.RS.RSEVLINT" Value="-P1W"/>
    </ItemGroupData>
    <ItemGroupData ItemGroupOID="IG.RS" data:ItemGroupDataSeq="119">
      <ItemData ItemOID="IT.RS.STUDYID" Value="CDISCPILOT01"/>
      <ItemData ItemOID="IT.RS.DOMAIN" Value="RS"/>
      <ItemData ItemOID="IT.RS.USUBJID" Value="CDISC007"/>
      <ItemData ItemOID="IT.RS.RSSEQ" Value="13"/>
      <ItemData ItemOID="IT.RS.RSTESTCD" Value="HAMD113"/>
      <ItemData ItemOID="IT.RS.RSTEST" Value="HAMD1-General Somatic Symptoms"/>
      <ItemData ItemOID="IT.RS.RSCAT" Value="HAMD 17"/>
      <ItemData ItemOID="IT.RS.RSORRES" Value="None."/>
      <ItemData ItemOID="IT.RS.RSSTRESC" Value="0"/>
      <ItemData ItemOID="IT.RS.RSSTRESN" Value="0"/>
      <ItemData ItemOID="IT.RS.VISITNUM" Value="201"/>
      <ItemData ItemOID="IT.RS.VISIT" Value="EARLY DISCONTINUATION RETRIEVAL"/>
      <ItemData ItemOID="IT.RS.EPOCH" Value="TREATMENT"/>
      <ItemData ItemOID="IT.RS.RSDTC" Value="2013-06-20"/>
      <ItemData ItemOID="IT.RS.RSDY" Value="167"/>
      <ItemData ItemOID="IT.RS.RSEVLINT" Value="-P1W"/>
    </ItemGroupData>
    <ItemGroupData ItemGroupOID="IG.RS" data:ItemGroupDataSeq="120">
      <ItemData ItemOID="IT.RS.STUDYID" Value="CDISCPILOT01"/>
      <ItemData ItemOID="IT.RS.DOMAIN" Value="RS"/>
      <ItemData ItemOID="IT.RS.USUBJID" Value="CDISC007"/>
      <ItemData ItemOID="IT.RS.RSSEQ" Value="14"/>
      <ItemData ItemOID="IT.RS.RSTESTCD" Value="HAMD114"/>
      <ItemData ItemOID="IT.RS.RSTEST" Value="HAMD1-Genital Symptoms"/>
      <ItemData ItemOID="IT.RS.RSCAT" Value="HAMD 17"/>
      <ItemData ItemOID="IT.RS.RSORRES" Value="Absent."/>
      <ItemData ItemOID="IT.RS.RSSTRESC" Value="1"/>
      <ItemData ItemOID="IT.RS.RSSTRESN" Value="1"/>
      <ItemData ItemOID="IT.RS.VISITNUM" Value="201"/>
      <ItemData ItemOID="IT.RS.VISIT" Value="EARLY DISCONTINUATION RETRIEVAL"/>
      <ItemData ItemOID="IT.RS.EPOCH" Value="TREATMENT"/>
      <ItemData ItemOID="IT.RS.RSDTC" Value="2013-06-20"/>
      <ItemData ItemOID="IT.RS.RSDY" Value="167"/>
      <ItemData ItemOID="IT.RS.RSEVLINT" Value="-P1W"/>
    </ItemGroupData>
    <ItemGroupData ItemGroupOID="IG.RS" data:ItemGroupDataSeq="121">
      <ItemData ItemOID="IT.RS.STUDYID" Value="CDISCPILOT01"/>
      <ItemData ItemOID="IT.RS.DOMAIN" Value="RS"/>
      <ItemData ItemOID="IT.RS.USUBJID" Value="CDISC007"/>
      <ItemData ItemOID="IT.RS.RSSEQ" Value="15"/>
      <ItemData ItemOID="IT.RS.RSTESTCD" Value="HAMD115"/>
      <ItemData ItemOID="IT.RS.RSTEST" Value="HAMD1-Hypochondriasis"/>
      <ItemData ItemOID="IT.RS.RSCAT" Value="HAMD 17"/>
      <ItemData ItemOID="IT.RS.RSORRES" Value="Not present."/>
      <ItemData ItemOID="IT.RS.RSSTRESC" Value="0"/>
      <ItemData ItemOID="IT.RS.RSSTRESN" Value="0"/>
      <ItemData ItemOID="IT.RS.VISITNUM" Value="201"/>
      <ItemData ItemOID="IT.RS.VISIT" Value="EARLY DISCONTINUATION RETRIEVAL"/>
      <ItemData ItemOID="IT.RS.EPOCH" Value="TREATMENT"/>
      <ItemData ItemOID="IT.RS.RSDTC" Value="2013-06-20"/>
      <ItemData ItemOID="IT.RS.RSDY" Value="167"/>
      <ItemData ItemOID="IT.RS.RSEVLINT" Value="-P1W"/>
    </ItemGroupData>
    <ItemGroupData ItemGroupOID="IG.RS" data:ItemGroupDataSeq="122">
      <ItemData ItemOID="IT.RS.STUDYID" Value="CDISCPILOT01"/>
      <ItemData ItemOID="IT.RS.DOMAIN" Value="RS"/>
      <ItemData ItemOID="IT.RS.USUBJID" Value="CDISC007"/>
      <ItemData ItemOID="IT.RS.RSSEQ" Value="16"/>
      <ItemData ItemOID="IT.RS.RSTESTCD" Value="HAMD116B"/>
      <ItemData ItemOID="IT.RS.RSTEST" Value="HAMD1-Loss of WT According to WK Meas"/>
      <ItemData ItemOID="IT.RS.RSCAT" Value="HAMD 17"/>
      <ItemData ItemOID="IT.RS.RSORRES" Value="No weight loss."/>
      <ItemData ItemOID="IT.RS.RSSTRESC" Value="0"/>
      <ItemData ItemOID="IT.RS.RSSTRESN" Value="0"/>
      <ItemData ItemOID="IT.RS.VISITNUM" Value="201"/>
      <ItemData ItemOID="IT.RS.VISIT" Value="EARLY DISCONTINUATION RETRIEVAL"/>
      <ItemData ItemOID="IT.RS.EPOCH" Value="TREATMENT"/>
      <ItemData ItemOID="IT.RS.RSDTC" Value="2013-06-20"/>
      <ItemData ItemOID="IT.RS.RSDY" Value="167"/>
      <ItemData ItemOID="IT.RS.RSEVLINT" Value="-P1W"/>
    </ItemGroupData>
    <ItemGroupData ItemGroupOID="IG.RS" data:ItemGroupDataSeq="123">
      <ItemData ItemOID="IT.RS.STUDYID" Value="CDISCPILOT01"/>
      <ItemData ItemOID="IT.RS.DOMAIN" Value="RS"/>
      <ItemData ItemOID="IT.RS.USUBJID" Value="CDISC007"/>
      <ItemData ItemOID="IT.RS.RSSEQ" Value="17"/>
      <ItemData ItemOID="IT.RS.RSTESTCD" Value="HAMD117"/>
      <ItemData ItemOID="IT.RS.RSTEST" Value="HAMD1-Insight"/>
      <ItemData ItemOID="IT.RS.RSCAT" Value="HAMD 17"/>
      <ItemData ItemOID="IT.RS.RSORRES" Value="Acknowledges being depressed and ill."/>
      <ItemData ItemOID="IT.RS.RSSTRESC" Value="0"/>
      <ItemData ItemOID="IT.RS.RSSTRESN" Value="0"/>
      <ItemData ItemOID="IT.RS.VISITNUM" Value="201"/>
      <ItemData ItemOID="IT.RS.VISIT" Value="EARLY DISCONTINUATION RETRIEVAL"/>
      <ItemData ItemOID="IT.RS.EPOCH" Value="TREATMENT"/>
      <ItemData ItemOID="IT.RS.RSDTC" Value="2013-06-20"/>
      <ItemData ItemOID="IT.RS.RSDY" Value="167"/>
      <ItemData ItemOID="IT.RS.RSEVLINT" Value="-P1W"/>
    </ItemGroupData>
    <ItemGroupData ItemGroupOID="IG.RS" data:ItemGroupDataSeq="124">
      <ItemData ItemOID="IT.RS.STUDYID" Value="CDISCPILOT01"/>
      <ItemData ItemOID="IT.RS.DOMAIN" Value="RS"/>
      <ItemData ItemOID="IT.RS.USUBJID" Value="CDISC007"/>
      <ItemData ItemOID="IT.RS.RSSEQ" Value="18"/>
      <ItemData ItemOID="IT.RS.RSTESTCD" Value="HAMD118"/>
      <ItemData ItemOID="IT.RS.RSTEST" Value="HAMD1-Total Score"/>
      <ItemData ItemOID="IT.RS.RSCAT" Value="HAMD 17"/>
      <ItemData ItemOID="IT.RS.RSORRES" Value="4"/>
      <ItemData ItemOID="IT.RS.RSSTRESC" Value="4"/>
      <ItemData ItemOID="IT.RS.RSSTRESN" Value="4"/>
      <ItemData ItemOID="IT.RS.VISITNUM" Value="201"/>
      <ItemData ItemOID="IT.RS.VISIT" Value="EARLY DISCONTINUATION RETRIEVAL"/>
      <ItemData ItemOID="IT.RS.EPOCH" Value="TREATMENT"/>
      <ItemData ItemOID="IT.RS.RSDTC" Value="2013-06-20"/>
      <ItemData ItemOID="IT.RS.RSDY" Value="167"/>
      <ItemData ItemOID="IT.RS.RSEVLINT" Value="-P1W"/>
    </ItemGroupData>
    <ItemGroupData ItemGroupOID="IG.RS" data:ItemGroupDataSeq="125">
      <ItemData ItemOID="IT.RS.STUDYID" Value="CDISCPILOT01"/>
      <ItemData ItemOID="IT.RS.DOMAIN" Value="RS"/>
      <ItemData ItemOID="IT.RS.USUBJID" Value="CDISC008"/>
      <ItemData ItemOID="IT.RS.RSSEQ" Value="1"/>
      <ItemData ItemOID="IT.RS.RSTESTCD" Value="HAMD101"/>
      <ItemData ItemOID="IT.RS.RSTEST" Value="HAMD1-Depressed Mood"/>
      <ItemData ItemOID="IT.RS.RSCAT" Value="HAMD 17"/>
      <ItemData ItemOID="IT.RS.RSORRES" Value="These feeling states indicated only on questioning."/>
      <ItemData ItemOID="IT.RS.RSSTRESC" Value="1"/>
      <ItemData ItemOID="IT.RS.RSSTRESN" Value="1"/>
      <ItemData ItemOID="IT.RS.RSLOBXFL" Value="Y"/>
      <ItemData ItemOID="IT.RS.VISITNUM" Value="3"/>
      <ItemData ItemOID="IT.RS.VISIT" Value="BASELINE"/>
      <ItemData ItemOID="IT.RS.EPOCH" Value="SCREENING"/>
      <ItemData ItemOID="IT.RS.RSDTC" Value="2014-05-11"/>
      <ItemData ItemOID="IT.RS.RSDY" Value="1"/>
      <ItemData ItemOID="IT.RS.RSEVLINT" Value="-P1W"/>
    </ItemGroupData>
    <ItemGroupData ItemGroupOID="IG.RS" data:ItemGroupDataSeq="126">
      <ItemData ItemOID="IT.RS.STUDYID" Value="CDISCPILOT01"/>
      <ItemData ItemOID="IT.RS.DOMAIN" Value="RS"/>
      <ItemData ItemOID="IT.RS.USUBJID" Value="CDISC008"/>
      <ItemData ItemOID="IT.RS.RSSEQ" Value="2"/>
      <ItemData ItemOID="IT.RS.RSTESTCD" Value="HAMD102"/>
      <ItemData ItemOID="IT.RS.RSTEST" Value="HAMD1-Feelings of Guilt"/>
      <ItemData ItemOID="IT.RS.RSCAT" Value="HAMD 17"/>
      <ItemData ItemOID="IT.RS.RSORRES" Value="Absent."/>
      <ItemData ItemOID="IT.RS.RSSTRESC" Value="0"/>
      <ItemData ItemOID="IT.RS.RSSTRESN" Value="0"/>
      <ItemData ItemOID="IT.RS.RSLOBXFL" Value="Y"/>
      <ItemData ItemOID="IT.RS.VISITNUM" Value="3"/>
      <ItemData ItemOID="IT.RS.VISIT" Value="BASELINE"/>
      <ItemData ItemOID="IT.RS.EPOCH" Value="SCREENING"/>
      <ItemData ItemOID="IT.RS.RSDTC" Value="2014-05-11"/>
      <ItemData ItemOID="IT.RS.RSDY" Value="1"/>
      <ItemData ItemOID="IT.RS.RSEVLINT" Value="-P1W"/>
    </ItemGroupData>
    <ItemGroupData ItemGroupOID="IG.RS" data:ItemGroupDataSeq="127">
      <ItemData ItemOID="IT.RS.STUDYID" Value="CDISCPILOT01"/>
      <ItemData ItemOID="IT.RS.DOMAIN" Value="RS"/>
      <ItemData ItemOID="IT.RS.USUBJID" Value="CDISC008"/>
      <ItemData ItemOID="IT.RS.RSSEQ" Value="3"/>
      <ItemData ItemOID="IT.RS.RSTESTCD" Value="HAMD103"/>
      <ItemData ItemOID="IT.RS.RSTEST" Value="HAMD1-Suicide"/>
      <ItemData ItemOID="IT.RS.RSCAT" Value="HAMD 17"/>
      <ItemData ItemOID="IT.RS.RSORRES" Value="Feels life is not worth living."/>
      <ItemData ItemOID="IT.RS.RSSTRESC" Value="1"/>
      <ItemData ItemOID="IT.RS.RSSTRESN" Value="1"/>
      <ItemData ItemOID="IT.RS.RSLOBXFL" Value="Y"/>
      <ItemData ItemOID="IT.RS.VISITNUM" Value="3"/>
      <ItemData ItemOID="IT.RS.VISIT" Value="BASELINE"/>
      <ItemData ItemOID="IT.RS.EPOCH" Value="SCREENING"/>
      <ItemData ItemOID="IT.RS.RSDTC" Value="2014-05-11"/>
      <ItemData ItemOID="IT.RS.RSDY" Value="1"/>
      <ItemData ItemOID="IT.RS.RSEVLINT" Value="-P1W"/>
    </ItemGroupData>
    <ItemGroupData ItemGroupOID="IG.RS" data:ItemGroupDataSeq="128">
      <ItemData ItemOID="IT.RS.STUDYID" Value="CDISCPILOT01"/>
      <ItemData ItemOID="IT.RS.DOMAIN" Value="RS"/>
      <ItemData ItemOID="IT.RS.USUBJID" Value="CDISC008"/>
      <ItemData ItemOID="IT.RS.RSSEQ" Value="4"/>
      <ItemData ItemOID="IT.RS.RSTESTCD" Value="HAMD104"/>
      <ItemData ItemOID="IT.RS.RSTEST" Value="HAMD1-Insomnia Early - Early Night"/>
      <ItemData ItemOID="IT.RS.RSCAT" Value="HAMD 17"/>
      <ItemData ItemOID="IT.RS.RSORRES" Value="Complains of occasional difficulty falling asleep, i.e. more than 1/2 hour"/>
      <ItemData ItemOID="IT.RS.RSSTRESC" Value="1"/>
      <ItemData ItemOID="IT.RS.RSSTRESN" Value="1"/>
      <ItemData ItemOID="IT.RS.RSLOBXFL" Value="Y"/>
      <ItemData ItemOID="IT.RS.VISITNUM" Value="3"/>
      <ItemData ItemOID="IT.RS.VISIT" Value="BASELINE"/>
      <ItemData ItemOID="IT.RS.EPOCH" Value="SCREENING"/>
      <ItemData ItemOID="IT.RS.RSDTC" Value="2014-05-11"/>
      <ItemData ItemOID="IT.RS.RSDY" Value="1"/>
      <ItemData ItemOID="IT.RS.RSEVLINT" Value="-P1W"/>
    </ItemGroupData>
    <ItemGroupData ItemGroupOID="IG.RS" data:ItemGroupDataSeq="129">
      <ItemData ItemOID="IT.RS.STUDYID" Value="CDISCPILOT01"/>
      <ItemData ItemOID="IT.RS.DOMAIN" Value="RS"/>
      <ItemData ItemOID="IT.RS.USUBJID" Value="CDISC008"/>
      <ItemData ItemOID="IT.RS.RSSEQ" Value="5"/>
      <ItemData ItemOID="IT.RS.RSTESTCD" Value="HAMD105"/>
      <ItemData ItemOID="IT.RS.RSTEST" Value="HAMD1-Insomnia Middle - Middle Night"/>
      <ItemData ItemOID="IT.RS.RSCAT" Value="HAMD 17"/>
      <ItemData ItemOID="IT.RS.RSORRES" Value="Patient complains of being restless and disturbed during the night."/>
      <ItemData ItemOID="IT.RS.RSSTRESC" Value="1"/>
      <ItemData ItemOID="IT.RS.RSSTRESN" Value="1"/>
      <ItemData ItemOID="IT.RS.RSLOBXFL" Value="Y"/>
      <ItemData ItemOID="IT.RS.VISITNUM" Value="3"/>
      <ItemData ItemOID="IT.RS.VISIT" Value="BASELINE"/>
      <ItemData ItemOID="IT.RS.EPOCH" Value="SCREENING"/>
      <ItemData ItemOID="IT.RS.RSDTC" Value="2014-05-11"/>
      <ItemData ItemOID="IT.RS.RSDY" Value="1"/>
      <ItemData ItemOID="IT.RS.RSEVLINT" Value="-P1W"/>
    </ItemGroupData>
    <ItemGroupData ItemGroupOID="IG.RS" data:ItemGroupDataSeq="130">
      <ItemData ItemOID="IT.RS.STUDYID" Value="CDISCPILOT01"/>
      <ItemData ItemOID="IT.RS.DOMAIN" Value="RS"/>
      <ItemData ItemOID="IT.RS.USUBJID" Value="CDISC008"/>
      <ItemData ItemOID="IT.RS.RSSEQ" Value="6"/>
      <ItemData ItemOID="IT.RS.RSTESTCD" Value="HAMD106"/>
      <ItemData ItemOID="IT.RS.RSTEST" Value="HAMD1-Insomnia Early Hours - Morning"/>
      <ItemData ItemOID="IT.RS.RSCAT" Value="HAMD 17"/>
      <ItemData ItemOID="IT.RS.RSORRES" Value="Waking in early hours of the morning but goes back to sleep."/>
      <ItemData ItemOID="IT.RS.RSSTRESC" Value="1"/>
      <ItemData ItemOID="IT.RS.RSSTRESN" Value="1"/>
      <ItemData ItemOID="IT.RS.RSLOBXFL" Value="Y"/>
      <ItemData ItemOID="IT.RS.VISITNUM" Value="3"/>
      <ItemData ItemOID="IT.RS.VISIT" Value="BASELINE"/>
      <ItemData ItemOID="IT.RS.EPOCH" Value="SCREENING"/>
      <ItemData ItemOID="IT.RS.RSDTC" Value="2014-05-11"/>
      <ItemData ItemOID="IT.RS.RSDY" Value="1"/>
      <ItemData ItemOID="IT.RS.RSEVLINT" Value="-P1W"/>
    </ItemGroupData>
    <ItemGroupData ItemGroupOID="IG.RS" data:ItemGroupDataSeq="131">
      <ItemData ItemOID="IT.RS.STUDYID" Value="CDISCPILOT01"/>
      <ItemData ItemOID="IT.RS.DOMAIN" Value="RS"/>
      <ItemData ItemOID="IT.RS.USUBJID" Value="CDISC008"/>
      <ItemData ItemOID="IT.RS.RSSEQ" Value="7"/>
      <ItemData ItemOID="IT.RS.RSTESTCD" Value="HAMD107"/>
      <ItemData ItemOID="IT.RS.RSTEST" Value="HAMD1-Work and Activities"/>
      <ItemData ItemOID="IT.RS.RSCAT" Value="HAMD 17"/>
      <ItemData ItemOID="IT.RS.RSORRES" Value="Thoughts and feelings of incapacity, fatigue or weakness related to activities, work or hobbies."/>
      <ItemData ItemOID="IT.RS.RSSTRESC" Value="1"/>
      <ItemData ItemOID="IT.RS.RSSTRESN" Value="1"/>
      <ItemData ItemOID="IT.RS.RSLOBXFL" Value="Y"/>
      <ItemData ItemOID="IT.RS.VISITNUM" Value="3"/>
      <ItemData ItemOID="IT.RS.VISIT" Value="BASELINE"/>
      <ItemData ItemOID="IT.RS.EPOCH" Value="SCREENING"/>
      <ItemData ItemOID="IT.RS.RSDTC" Value="2014-05-11"/>
      <ItemData ItemOID="IT.RS.RSDY" Value="1"/>
      <ItemData ItemOID="IT.RS.RSEVLINT" Value="-P1W"/>
    </ItemGroupData>
    <ItemGroupData ItemGroupOID="IG.RS" data:ItemGroupDataSeq="132">
      <ItemData ItemOID="IT.RS.STUDYID" Value="CDISCPILOT01"/>
      <ItemData ItemOID="IT.RS.DOMAIN" Value="RS"/>
      <ItemData ItemOID="IT.RS.USUBJID" Value="CDISC008"/>
      <ItemData ItemOID="IT.RS.RSSEQ" Value="8"/>
      <ItemData ItemOID="IT.RS.RSTESTCD" Value="HAMD108"/>
      <ItemData ItemOID="IT.RS.RSTEST" Value="HAMD1-Retardation"/>
      <ItemData ItemOID="IT.RS.RSCAT" Value="HAMD 17"/>
      <ItemData ItemOID="IT.RS.RSORRES" Value="Slight retardation during the interview."/>
      <ItemData ItemOID="IT.RS.RSSTRESC" Value="1"/>
      <ItemData ItemOID="IT.RS.RSSTRESN" Value="1"/>
      <ItemData ItemOID="IT.RS.RSLOBXFL" Value="Y"/>
      <ItemData ItemOID="IT.RS.VISITNUM" Value="3"/>
      <ItemData ItemOID="IT.RS.VISIT" Value="BASELINE"/>
      <ItemData ItemOID="IT.RS.EPOCH" Value="SCREENING"/>
      <ItemData ItemOID="IT.RS.RSDTC" Value="2014-05-11"/>
      <ItemData ItemOID="IT.RS.RSDY" Value="1"/>
      <ItemData ItemOID="IT.RS.RSEVLINT" Value="-P1W"/>
    </ItemGroupData>
    <ItemGroupData ItemGroupOID="IG.RS" data:ItemGroupDataSeq="133">
      <ItemData ItemOID="IT.RS.STUDYID" Value="CDISCPILOT01"/>
      <ItemData ItemOID="IT.RS.DOMAIN" Value="RS"/>
      <ItemData ItemOID="IT.RS.USUBJID" Value="CDISC008"/>
      <ItemData ItemOID="IT.RS.RSSEQ" Value="9"/>
      <ItemData ItemOID="IT.RS.RSTESTCD" Value="HAMD109"/>
      <ItemData ItemOID="IT.RS.RSTEST" Value="HAMD1-Agitation"/>
      <ItemData ItemOID="IT.RS.RSCAT" Value="HAMD 17"/>
      <ItemData ItemOID="IT.RS.RSORRES" Value="Fidgetiness."/>
      <ItemData ItemOID="IT.RS.RSSTRESC" Value="1"/>
      <ItemData ItemOID="IT.RS.RSSTRESN" Value="1"/>
      <ItemData ItemOID="IT.RS.RSLOBXFL" Value="Y"/>
      <ItemData ItemOID="IT.RS.VISITNUM" Value="3"/>
      <ItemData ItemOID="IT.RS.VISIT" Value="BASELINE"/>
      <ItemData ItemOID="IT.RS.EPOCH" Value="SCREENING"/>
      <ItemData ItemOID="IT.RS.RSDTC" Value="2014-05-11"/>
      <ItemData ItemOID="IT.RS.RSDY" Value="1"/>
      <ItemData ItemOID="IT.RS.RSEVLINT" Value="-P1W"/>
    </ItemGroupData>
    <ItemGroupData ItemGroupOID="IG.RS" data:ItemGroupDataSeq="134">
      <ItemData ItemOID="IT.RS.STUDYID" Value="CDISCPILOT01"/>
      <ItemData ItemOID="IT.RS.DOMAIN" Value="RS"/>
      <ItemData ItemOID="IT.RS.USUBJID" Value="CDISC008"/>
      <ItemData ItemOID="IT.RS.RSSEQ" Value="10"/>
      <ItemData ItemOID="IT.RS.RSTESTCD" Value="HAMD110"/>
      <ItemData ItemOID="IT.RS.RSTEST" Value="HAMD1-Anxiety Psychic"/>
      <ItemData ItemOID="IT.RS.RSCAT" Value="HAMD 17"/>
      <ItemData ItemOID="IT.RS.RSORRES" Value="No difficulty."/>
      <ItemData ItemOID="IT.RS.RSSTRESC" Value="0"/>
      <ItemData ItemOID="IT.RS.RSSTRESN" Value="0"/>
      <ItemData ItemOID="IT.RS.RSLOBXFL" Value="Y"/>
      <ItemData ItemOID="IT.RS.VISITNUM" Value="3"/>
      <ItemData ItemOID="IT.RS.VISIT" Value="BASELINE"/>
      <ItemData ItemOID="IT.RS.EPOCH" Value="SCREENING"/>
      <ItemData ItemOID="IT.RS.RSDTC" Value="2014-05-11"/>
      <ItemData ItemOID="IT.RS.RSDY" Value="1"/>
      <ItemData ItemOID="IT.RS.RSEVLINT" Value="-P1W"/>
    </ItemGroupData>
    <ItemGroupData ItemGroupOID="IG.RS" data:ItemGroupDataSeq="135">
      <ItemData ItemOID="IT.RS.STUDYID" Value="CDISCPILOT01"/>
      <ItemData ItemOID="IT.RS.DOMAIN" Value="RS"/>
      <ItemData ItemOID="IT.RS.USUBJID" Value="CDISC008"/>
      <ItemData ItemOID="IT.RS.RSSEQ" Value="11"/>
      <ItemData ItemOID="IT.RS.RSTESTCD" Value="HAMD111"/>
      <ItemData ItemOID="IT.RS.RSTEST" Value="HAMD1-Anxiety Somatic"/>
      <ItemData ItemOID="IT.RS.RSCAT" Value="HAMD 17"/>
      <ItemData ItemOID="IT.RS.RSORRES" Value="Mild."/>
      <ItemData ItemOID="IT.RS.RSSTRESC" Value="1"/>
      <ItemData ItemOID="IT.RS.RSSTRESN" Value="1"/>
      <ItemData ItemOID="IT.RS.RSLOBXFL" Value="Y"/>
      <ItemData ItemOID="IT.RS.VISITNUM" Value="3"/>
      <ItemData ItemOID="IT.RS.VISIT" Value="BASELINE"/>
      <ItemData ItemOID="IT.RS.EPOCH" Value="SCREENING"/>
      <ItemData ItemOID="IT.RS.RSDTC" Value="2014-05-11"/>
      <ItemData ItemOID="IT.RS.RSDY" Value="1"/>
      <ItemData ItemOID="IT.RS.RSEVLINT" Value="-P1W"/>
    </ItemGroupData>
    <ItemGroupData ItemGroupOID="IG.RS" data:ItemGroupDataSeq="136">
      <ItemData ItemOID="IT.RS.STUDYID" Value="CDISCPILOT01"/>
      <ItemData ItemOID="IT.RS.DOMAIN" Value="RS"/>
      <ItemData ItemOID="IT.RS.USUBJID" Value="CDISC008"/>
      <ItemData ItemOID="IT.RS.RSSEQ" Value="12"/>
      <ItemData ItemOID="IT.RS.RSTESTCD" Value="HAMD112"/>
      <ItemData ItemOID="IT.RS.RSTEST" Value="HAMD1-Somatic Symptoms GI"/>
      <ItemData ItemOID="IT.RS.RSCAT" Value="HAMD 17"/>
      <ItemData ItemOID="IT.RS.RSORRES" Value="Loss of appetite but eating without staff encouragement. Heavy feelings in abdomen."/>
      <ItemData ItemOID="IT.RS.RSSTRESC" Value="1"/>
      <ItemData ItemOID="IT.RS.RSSTRESN" Value="1"/>
      <ItemData ItemOID="IT.RS.RSLOBXFL" Value="Y"/>
      <ItemData ItemOID="IT.RS.VISITNUM" Value="3"/>
      <ItemData ItemOID="IT.RS.VISIT" Value="BASELINE"/>
      <ItemData ItemOID="IT.RS.EPOCH" Value="SCREENING"/>
      <ItemData ItemOID="IT.RS.RSDTC" Value="2014-05-11"/>
      <ItemData ItemOID="IT.RS.RSDY" Value="1"/>
      <ItemData ItemOID="IT.RS.RSEVLINT" Value="-P1W"/>
    </ItemGroupData>
    <ItemGroupData ItemGroupOID="IG.RS" data:ItemGroupDataSeq="137">
      <ItemData ItemOID="IT.RS.STUDYID" Value="CDISCPILOT01"/>
      <ItemData ItemOID="IT.RS.DOMAIN" Value="RS"/>
      <ItemData ItemOID="IT.RS.USUBJID" Value="CDISC008"/>
      <ItemData ItemOID="IT.RS.RSSEQ" Value="13"/>
      <ItemData ItemOID="IT.RS.RSTESTCD" Value="HAMD113"/>
      <ItemData ItemOID="IT.RS.RSTEST" Value="HAMD1-General Somatic Symptoms"/>
      <ItemData ItemOID="IT.RS.RSCAT" Value="HAMD 17"/>
      <ItemData ItemOID="IT.RS.RSORRES" Value="None."/>
      <ItemData ItemOID="IT.RS.RSSTRESC" Value="0"/>
      <ItemData ItemOID="IT.RS.RSSTRESN" Value="0"/>
      <ItemData ItemOID="IT.RS.RSLOBXFL" Value="Y"/>
      <ItemData ItemOID="IT.RS.VISITNUM" Value="3"/>
      <ItemData ItemOID="IT.RS.VISIT" Value="BASELINE"/>
      <ItemData ItemOID="IT.RS.EPOCH" Value="SCREENING"/>
      <ItemData ItemOID="IT.RS.RSDTC" Value="2014-05-11"/>
      <ItemData ItemOID="IT.RS.RSDY" Value="1"/>
      <ItemData ItemOID="IT.RS.RSEVLINT" Value="-P1W"/>
    </ItemGroupData>
    <ItemGroupData ItemGroupOID="IG.RS" data:ItemGroupDataSeq="138">
      <ItemData ItemOID="IT.RS.STUDYID" Value="CDISCPILOT01"/>
      <ItemData ItemOID="IT.RS.DOMAIN" Value="RS"/>
      <ItemData ItemOID="IT.RS.USUBJID" Value="CDISC008"/>
      <ItemData ItemOID="IT.RS.RSSEQ" Value="14"/>
      <ItemData ItemOID="IT.RS.RSTESTCD" Value="HAMD114"/>
      <ItemData ItemOID="IT.RS.RSTEST" Value="HAMD1-Genital Symptoms"/>
      <ItemData ItemOID="IT.RS.RSCAT" Value="HAMD 17"/>
      <ItemData ItemOID="IT.RS.RSORRES" Value="Absent."/>
      <ItemData ItemOID="IT.RS.RSSTRESC" Value="1"/>
      <ItemData ItemOID="IT.RS.RSSTRESN" Value="1"/>
      <ItemData ItemOID="IT.RS.RSLOBXFL" Value="Y"/>
      <ItemData ItemOID="IT.RS.VISITNUM" Value="3"/>
      <ItemData ItemOID="IT.RS.VISIT" Value="BASELINE"/>
      <ItemData ItemOID="IT.RS.EPOCH" Value="SCREENING"/>
      <ItemData ItemOID="IT.RS.RSDTC" Value="2014-05-11"/>
      <ItemData ItemOID="IT.RS.RSDY" Value="1"/>
      <ItemData ItemOID="IT.RS.RSEVLINT" Value="-P1W"/>
    </ItemGroupData>
    <ItemGroupData ItemGroupOID="IG.RS" data:ItemGroupDataSeq="139">
      <ItemData ItemOID="IT.RS.STUDYID" Value="CDISCPILOT01"/>
      <ItemData ItemOID="IT.RS.DOMAIN" Value="RS"/>
      <ItemData ItemOID="IT.RS.USUBJID" Value="CDISC008"/>
      <ItemData ItemOID="IT.RS.RSSEQ" Value="15"/>
      <ItemData ItemOID="IT.RS.RSTESTCD" Value="HAMD115"/>
      <ItemData ItemOID="IT.RS.RSTEST" Value="HAMD1-Hypochondriasis"/>
      <ItemData ItemOID="IT.RS.RSCAT" Value="HAMD 17"/>
      <ItemData ItemOID="IT.RS.RSORRES" Value="Not present."/>
      <ItemData ItemOID="IT.RS.RSSTRESC" Value="0"/>
      <ItemData ItemOID="IT.RS.RSSTRESN" Value="0"/>
      <ItemData ItemOID="IT.RS.RSLOBXFL" Value="Y"/>
      <ItemData ItemOID="IT.RS.VISITNUM" Value="3"/>
      <ItemData ItemOID="IT.RS.VISIT" Value="BASELINE"/>
      <ItemData ItemOID="IT.RS.EPOCH" Value="SCREENING"/>
      <ItemData ItemOID="IT.RS.RSDTC" Value="2014-05-11"/>
      <ItemData ItemOID="IT.RS.RSDY" Value="1"/>
      <ItemData ItemOID="IT.RS.RSEVLINT" Value="-P1W"/>
    </ItemGroupData>
    <ItemGroupData ItemGroupOID="IG.RS" data:ItemGroupDataSeq="140">
      <ItemData ItemOID="IT.RS.STUDYID" Value="CDISCPILOT01"/>
      <ItemData ItemOID="IT.RS.DOMAIN" Value="RS"/>
      <ItemData ItemOID="IT.RS.USUBJID" Value="CDISC008"/>
      <ItemData ItemOID="IT.RS.RSSEQ" Value="16"/>
      <ItemData ItemOID="IT.RS.RSTESTCD" Value="HAMD116B"/>
      <ItemData ItemOID="IT.RS.RSTEST" Value="HAMD1-Loss of WT According to WK Meas"/>
      <ItemData ItemOID="IT.RS.RSCAT" Value="HAMD 17"/>
      <ItemData ItemOID="IT.RS.RSORRES" Value="No weight loss."/>
      <ItemData ItemOID="IT.RS.RSSTRESC" Value="0"/>
      <ItemData ItemOID="IT.RS.RSSTRESN" Value="0"/>
      <ItemData ItemOID="IT.RS.RSLOBXFL" Value="Y"/>
      <ItemData ItemOID="IT.RS.VISITNUM" Value="3"/>
      <ItemData ItemOID="IT.RS.VISIT" Value="BASELINE"/>
      <ItemData ItemOID="IT.RS.EPOCH" Value="SCREENING"/>
      <ItemData ItemOID="IT.RS.RSDTC" Value="2014-05-11"/>
      <ItemData ItemOID="IT.RS.RSDY" Value="1"/>
      <ItemData ItemOID="IT.RS.RSEVLINT" Value="-P1W"/>
    </ItemGroupData>
    <ItemGroupData ItemGroupOID="IG.RS" data:ItemGroupDataSeq="141">
      <ItemData ItemOID="IT.RS.STUDYID" Value="CDISCPILOT01"/>
      <ItemData ItemOID="IT.RS.DOMAIN" Value="RS"/>
      <ItemData ItemOID="IT.RS.USUBJID" Value="CDISC008"/>
      <ItemData ItemOID="IT.RS.RSSEQ" Value="17"/>
      <ItemData ItemOID="IT.RS.RSTESTCD" Value="HAMD117"/>
      <ItemData ItemOID="IT.RS.RSTEST" Value="HAMD1-Insight"/>
      <ItemData ItemOID="IT.RS.RSCAT" Value="HAMD 17"/>
      <ItemData ItemOID="IT.RS.RSORRES" Value="Acknowledges illness but attributes cause to bad food, climate, overwork, virus, need for rest, etc."/>
      <ItemData ItemOID="IT.RS.RSSTRESC" Value="1"/>
      <ItemData ItemOID="IT.RS.RSSTRESN" Value="1"/>
      <ItemData ItemOID="IT.RS.RSLOBXFL" Value="Y"/>
      <ItemData ItemOID="IT.RS.VISITNUM" Value="3"/>
      <ItemData ItemOID="IT.RS.VISIT" Value="BASELINE"/>
      <ItemData ItemOID="IT.RS.EPOCH" Value="SCREENING"/>
      <ItemData ItemOID="IT.RS.RSDTC" Value="2014-05-11"/>
      <ItemData ItemOID="IT.RS.RSDY" Value="1"/>
      <ItemData ItemOID="IT.RS.RSEVLINT" Value="-P1W"/>
    </ItemGroupData>
    <ItemGroupData ItemGroupOID="IG.RS" data:ItemGroupDataSeq="142">
      <ItemData ItemOID="IT.RS.STUDYID" Value="CDISCPILOT01"/>
      <ItemData ItemOID="IT.RS.DOMAIN" Value="RS"/>
      <ItemData ItemOID="IT.RS.USUBJID" Value="CDISC008"/>
      <ItemData ItemOID="IT.RS.RSSEQ" Value="18"/>
      <ItemData ItemOID="IT.RS.RSTESTCD" Value="HAMD118"/>
      <ItemData ItemOID="IT.RS.RSTEST" Value="HAMD1-Total Score"/>
      <ItemData ItemOID="IT.RS.RSCAT" Value="HAMD 17"/>
      <ItemData ItemOID="IT.RS.RSORRES" Value="13"/>
      <ItemData ItemOID="IT.RS.RSSTRESC" Value="13"/>
      <ItemData ItemOID="IT.RS.RSSTRESN" Value="13"/>
      <ItemData ItemOID="IT.RS.RSLOBXFL" Value="Y"/>
      <ItemData ItemOID="IT.RS.VISITNUM" Value="3"/>
      <ItemData ItemOID="IT.RS.VISIT" Value="BASELINE"/>
      <ItemData ItemOID="IT.RS.EPOCH" Value="SCREENING"/>
      <ItemData ItemOID="IT.RS.RSDTC" Value="2014-05-11"/>
      <ItemData ItemOID="IT.RS.RSDY" Value="1"/>
      <ItemData ItemOID="IT.RS.RSEVLINT" Value="-P1W"/>
    </ItemGroupData>
    <ItemGroupData ItemGroupOID="IG.RS" data:ItemGroupDataSeq="143">
      <ItemData ItemOID="IT.RS.STUDYID" Value="CDISCPILOT01"/>
      <ItemData ItemOID="IT.RS.DOMAIN" Value="RS"/>
      <ItemData ItemOID="IT.RS.USUBJID" Value="CDISC009"/>
      <ItemData ItemOID="IT.RS.RSSEQ" Value="1"/>
      <ItemData ItemOID="IT.RS.RSTESTCD" Value="HAMD101"/>
      <ItemData ItemOID="IT.RS.RSTEST" Value="HAMD1-Depressed Mood"/>
      <ItemData ItemOID="IT.RS.RSCAT" Value="HAMD 17"/>
      <ItemData ItemOID="IT.RS.RSORRES" Value="Absent."/>
      <ItemData ItemOID="IT.RS.RSSTRESC" Value="0"/>
      <ItemData ItemOID="IT.RS.RSSTRESN" Value="0"/>
      <ItemData ItemOID="IT.RS.RSLOBXFL" Value="Y"/>
      <ItemData ItemOID="IT.RS.VISITNUM" Value="3"/>
      <ItemData ItemOID="IT.RS.VISIT" Value="BASELINE"/>
      <ItemData ItemOID="IT.RS.EPOCH" Value="SCREENING"/>
      <ItemData ItemOID="IT.RS.RSDTC" Value="2012-10-22"/>
      <ItemData ItemOID="IT.RS.RSDY" Value="1"/>
      <ItemData ItemOID="IT.RS.RSEVLINT" Value="-P1W"/>
    </ItemGroupData>
    <ItemGroupData ItemGroupOID="IG.RS" data:ItemGroupDataSeq="144">
      <ItemData ItemOID="IT.RS.STUDYID" Value="CDISCPILOT01"/>
      <ItemData ItemOID="IT.RS.DOMAIN" Value="RS"/>
      <ItemData ItemOID="IT.RS.USUBJID" Value="CDISC009"/>
      <ItemData ItemOID="IT.RS.RSSEQ" Value="2"/>
      <ItemData ItemOID="IT.RS.RSTESTCD" Value="HAMD102"/>
      <ItemData ItemOID="IT.RS.RSTEST" Value="HAMD1-Feelings of Guilt"/>
      <ItemData ItemOID="IT.RS.RSCAT" Value="HAMD 17"/>
      <ItemData ItemOID="IT.RS.RSORRES" Value="Self reproach, feels he/she has let people down."/>
      <ItemData ItemOID="IT.RS.RSSTRESC" Value="1"/>
      <ItemData ItemOID="IT.RS.RSSTRESN" Value="1"/>
      <ItemData ItemOID="IT.RS.RSLOBXFL" Value="Y"/>
      <ItemData ItemOID="IT.RS.VISITNUM" Value="3"/>
      <ItemData ItemOID="IT.RS.VISIT" Value="BASELINE"/>
      <ItemData ItemOID="IT.RS.EPOCH" Value="SCREENING"/>
      <ItemData ItemOID="IT.RS.RSDTC" Value="2012-10-22"/>
      <ItemData ItemOID="IT.RS.RSDY" Value="1"/>
      <ItemData ItemOID="IT.RS.RSEVLINT" Value="-P1W"/>
    </ItemGroupData>
    <ItemGroupData ItemGroupOID="IG.RS" data:ItemGroupDataSeq="145">
      <ItemData ItemOID="IT.RS.STUDYID" Value="CDISCPILOT01"/>
      <ItemData ItemOID="IT.RS.DOMAIN" Value="RS"/>
      <ItemData ItemOID="IT.RS.USUBJID" Value="CDISC009"/>
      <ItemData ItemOID="IT.RS.RSSEQ" Value="3"/>
      <ItemData ItemOID="IT.RS.RSTESTCD" Value="HAMD103"/>
      <ItemData ItemOID="IT.RS.RSTEST" Value="HAMD1-Suicide"/>
      <ItemData ItemOID="IT.RS.RSCAT" Value="HAMD 17"/>
      <ItemData ItemOID="IT.RS.RSORRES" Value="Absent."/>
      <ItemData ItemOID="IT.RS.RSSTRESC" Value="0"/>
      <ItemData ItemOID="IT.RS.RSSTRESN" Value="0"/>
      <ItemData ItemOID="IT.RS.RSLOBXFL" Value="Y"/>
      <ItemData ItemOID="IT.RS.VISITNUM" Value="3"/>
      <ItemData ItemOID="IT.RS.VISIT" Value="BASELINE"/>
      <ItemData ItemOID="IT.RS.EPOCH" Value="SCREENING"/>
      <ItemData ItemOID="IT.RS.RSDTC" Value="2012-10-22"/>
      <ItemData ItemOID="IT.RS.RSDY" Value="1"/>
      <ItemData ItemOID="IT.RS.RSEVLINT" Value="-P1W"/>
    </ItemGroupData>
    <ItemGroupData ItemGroupOID="IG.RS" data:ItemGroupDataSeq="146">
      <ItemData ItemOID="IT.RS.STUDYID" Value="CDISCPILOT01"/>
      <ItemData ItemOID="IT.RS.DOMAIN" Value="RS"/>
      <ItemData ItemOID="IT.RS.USUBJID" Value="CDISC009"/>
      <ItemData ItemOID="IT.RS.RSSEQ" Value="4"/>
      <ItemData ItemOID="IT.RS.RSTESTCD" Value="HAMD104"/>
      <ItemData ItemOID="IT.RS.RSTEST" Value="HAMD1-Insomnia Early - Early Night"/>
      <ItemData ItemOID="IT.RS.RSCAT" Value="HAMD 17"/>
      <ItemData ItemOID="IT.RS.RSORRES" Value="Complains of occasional difficulty falling asleep, i.e. more than 1/2 hour"/>
      <ItemData ItemOID="IT.RS.RSSTRESC" Value="1"/>
      <ItemData ItemOID="IT.RS.RSSTRESN" Value="1"/>
      <ItemData ItemOID="IT.RS.RSLOBXFL" Value="Y"/>
      <ItemData ItemOID="IT.RS.VISITNUM" Value="3"/>
      <ItemData ItemOID="IT.RS.VISIT" Value="BASELINE"/>
      <ItemData ItemOID="IT.RS.EPOCH" Value="SCREENING"/>
      <ItemData ItemOID="IT.RS.RSDTC" Value="2012-10-22"/>
      <ItemData ItemOID="IT.RS.RSDY" Value="1"/>
      <ItemData ItemOID="IT.RS.RSEVLINT" Value="-P1W"/>
    </ItemGroupData>
    <ItemGroupData ItemGroupOID="IG.RS" data:ItemGroupDataSeq="147">
      <ItemData ItemOID="IT.RS.STUDYID" Value="CDISCPILOT01"/>
      <ItemData ItemOID="IT.RS.DOMAIN" Value="RS"/>
      <ItemData ItemOID="IT.RS.USUBJID" Value="CDISC009"/>
      <ItemData ItemOID="IT.RS.RSSEQ" Value="5"/>
      <ItemData ItemOID="IT.RS.RSTESTCD" Value="HAMD105"/>
      <ItemData ItemOID="IT.RS.RSTEST" Value="HAMD1-Insomnia Middle - Middle Night"/>
      <ItemData ItemOID="IT.RS.RSCAT" Value="HAMD 17"/>
      <ItemData ItemOID="IT.RS.RSORRES" Value="No difficulty."/>
      <ItemData ItemOID="IT.RS.RSSTRESC" Value="0"/>
      <ItemData ItemOID="IT.RS.RSSTRESN" Value="0"/>
      <ItemData ItemOID="IT.RS.RSLOBXFL" Value="Y"/>
      <ItemData ItemOID="IT.RS.VISITNUM" Value="3"/>
      <ItemData ItemOID="IT.RS.VISIT" Value="BASELINE"/>
      <ItemData ItemOID="IT.RS.EPOCH" Value="SCREENING"/>
      <ItemData ItemOID="IT.RS.RSDTC" Value="2012-10-22"/>
      <ItemData ItemOID="IT.RS.RSDY" Value="1"/>
      <ItemData ItemOID="IT.RS.RSEVLINT" Value="-P1W"/>
    </ItemGroupData>
    <ItemGroupData ItemGroupOID="IG.RS" data:ItemGroupDataSeq="148">
      <ItemData ItemOID="IT.RS.STUDYID" Value="CDISCPILOT01"/>
      <ItemData ItemOID="IT.RS.DOMAIN" Value="RS"/>
      <ItemData ItemOID="IT.RS.USUBJID" Value="CDISC009"/>
      <ItemData ItemOID="IT.RS.RSSEQ" Value="6"/>
      <ItemData ItemOID="IT.RS.RSTESTCD" Value="HAMD106"/>
      <ItemData ItemOID="IT.RS.RSTEST" Value="HAMD1-Insomnia Early Hours - Morning"/>
      <ItemData ItemOID="IT.RS.RSCAT" Value="HAMD 17"/>
      <ItemData ItemOID="IT.RS.RSORRES" Value="Waking in early hours of the morning but goes back to sleep."/>
      <ItemData ItemOID="IT.RS.RSSTRESC" Value="1"/>
      <ItemData ItemOID="IT.RS.RSSTRESN" Value="1"/>
      <ItemData ItemOID="IT.RS.RSLOBXFL" Value="Y"/>
      <ItemData ItemOID="IT.RS.VISITNUM" Value="3"/>
      <ItemData ItemOID="IT.RS.VISIT" Value="BASELINE"/>
      <ItemData ItemOID="IT.RS.EPOCH" Value="SCREENING"/>
      <ItemData ItemOID="IT.RS.RSDTC" Value="2012-10-22"/>
      <ItemData ItemOID="IT.RS.RSDY" Value="1"/>
      <ItemData ItemOID="IT.RS.RSEVLINT" Value="-P1W"/>
    </ItemGroupData>
    <ItemGroupData ItemGroupOID="IG.RS" data:ItemGroupDataSeq="149">
      <ItemData ItemOID="IT.RS.STUDYID" Value="CDISCPILOT01"/>
      <ItemData ItemOID="IT.RS.DOMAIN" Value="RS"/>
      <ItemData ItemOID="IT.RS.USUBJID" Value="CDISC009"/>
      <ItemData ItemOID="IT.RS.RSSEQ" Value="7"/>
      <ItemData ItemOID="IT.RS.RSTESTCD" Value="HAMD107"/>
      <ItemData ItemOID="IT.RS.RSTEST" Value="HAMD1-Work and Activities"/>
      <ItemData ItemOID="IT.RS.RSCAT" Value="HAMD 17"/>
      <ItemData ItemOID="IT.RS.RSORRES" Value="Thoughts and feelings of incapacity, fatigue or weakness related to activities, work or hobbies."/>
      <ItemData ItemOID="IT.RS.RSSTRESC" Value="1"/>
      <ItemData ItemOID="IT.RS.RSSTRESN" Value="1"/>
      <ItemData ItemOID="IT.RS.RSLOBXFL" Value="Y"/>
      <ItemData ItemOID="IT.RS.VISITNUM" Value="3"/>
      <ItemData ItemOID="IT.RS.VISIT" Value="BASELINE"/>
      <ItemData ItemOID="IT.RS.EPOCH" Value="SCREENING"/>
      <ItemData ItemOID="IT.RS.RSDTC" Value="2012-10-22"/>
      <ItemData ItemOID="IT.RS.RSDY" Value="1"/>
      <ItemData ItemOID="IT.RS.RSEVLINT" Value="-P1W"/>
    </ItemGroupData>
    <ItemGroupData ItemGroupOID="IG.RS" data:ItemGroupDataSeq="150">
      <ItemData ItemOID="IT.RS.STUDYID" Value="CDISCPILOT01"/>
      <ItemData ItemOID="IT.RS.DOMAIN" Value="RS"/>
      <ItemData ItemOID="IT.RS.USUBJID" Value="CDISC009"/>
      <ItemData ItemOID="IT.RS.RSSEQ" Value="8"/>
      <ItemData ItemOID="IT.RS.RSTESTCD" Value="HAMD108"/>
      <ItemData ItemOID="IT.RS.RSTEST" Value="HAMD1-Retardation"/>
      <ItemData ItemOID="IT.RS.RSCAT" Value="HAMD 17"/>
      <ItemData ItemOID="IT.RS.RSORRES" Value="Slight retardation during the interview."/>
      <ItemData ItemOID="IT.RS.RSSTRESC" Value="1"/>
      <ItemData ItemOID="IT.RS.RSSTRESN" Value="1"/>
      <ItemData ItemOID="IT.RS.RSLOBXFL" Value="Y"/>
      <ItemData ItemOID="IT.RS.VISITNUM" Value="3"/>
      <ItemData ItemOID="IT.RS.VISIT" Value="BASELINE"/>
      <ItemData ItemOID="IT.RS.EPOCH" Value="SCREENING"/>
      <ItemData ItemOID="IT.RS.RSDTC" Value="2012-10-22"/>
      <ItemData ItemOID="IT.RS.RSDY" Value="1"/>
      <ItemData ItemOID="IT.RS.RSEVLINT" Value="-P1W"/>
    </ItemGroupData>
    <ItemGroupData ItemGroupOID="IG.RS" data:ItemGroupDataSeq="151">
      <ItemData ItemOID="IT.RS.STUDYID" Value="CDISCPILOT01"/>
      <ItemData ItemOID="IT.RS.DOMAIN" Value="RS"/>
      <ItemData ItemOID="IT.RS.USUBJID" Value="CDISC009"/>
      <ItemData ItemOID="IT.RS.RSSEQ" Value="9"/>
      <ItemData ItemOID="IT.RS.RSTESTCD" Value="HAMD109"/>
      <ItemData ItemOID="IT.RS.RSTEST" Value="HAMD1-Agitation"/>
      <ItemData ItemOID="IT.RS.RSCAT" Value="HAMD 17"/>
      <ItemData ItemOID="IT.RS.RSORRES" Value="Fidgetiness."/>
      <ItemData ItemOID="IT.RS.RSSTRESC" Value="1"/>
      <ItemData ItemOID="IT.RS.RSSTRESN" Value="1"/>
      <ItemData ItemOID="IT.RS.RSLOBXFL" Value="Y"/>
      <ItemData ItemOID="IT.RS.VISITNUM" Value="3"/>
      <ItemData ItemOID="IT.RS.VISIT" Value="BASELINE"/>
      <ItemData ItemOID="IT.RS.EPOCH" Value="SCREENING"/>
      <ItemData ItemOID="IT.RS.RSDTC" Value="2012-10-22"/>
      <ItemData ItemOID="IT.RS.RSDY" Value="1"/>
      <ItemData ItemOID="IT.RS.RSEVLINT" Value="-P1W"/>
    </ItemGroupData>
    <ItemGroupData ItemGroupOID="IG.RS" data:ItemGroupDataSeq="152">
      <ItemData ItemOID="IT.RS.STUDYID" Value="CDISCPILOT01"/>
      <ItemData ItemOID="IT.RS.DOMAIN" Value="RS"/>
      <ItemData ItemOID="IT.RS.USUBJID" Value="CDISC009"/>
      <ItemData ItemOID="IT.RS.RSSEQ" Value="10"/>
      <ItemData ItemOID="IT.RS.RSTESTCD" Value="HAMD110"/>
      <ItemData ItemOID="IT.RS.RSTEST" Value="HAMD1-Anxiety Psychic"/>
      <ItemData ItemOID="IT.RS.RSCAT" Value="HAMD 17"/>
      <ItemData ItemOID="IT.RS.RSORRES" Value="No difficulty."/>
      <ItemData ItemOID="IT.RS.RSSTRESC" Value="0"/>
      <ItemData ItemOID="IT.RS.RSSTRESN" Value="0"/>
      <ItemData ItemOID="IT.RS.RSLOBXFL" Value="Y"/>
      <ItemData ItemOID="IT.RS.VISITNUM" Value="3"/>
      <ItemData ItemOID="IT.RS.VISIT" Value="BASELINE"/>
      <ItemData ItemOID="IT.RS.EPOCH" Value="SCREENING"/>
      <ItemData ItemOID="IT.RS.RSDTC" Value="2012-10-22"/>
      <ItemData ItemOID="IT.RS.RSDY" Value="1"/>
      <ItemData ItemOID="IT.RS.RSEVLINT" Value="-P1W"/>
    </ItemGroupData>
    <ItemGroupData ItemGroupOID="IG.RS" data:ItemGroupDataSeq="153">
      <ItemData ItemOID="IT.RS.STUDYID" Value="CDISCPILOT01"/>
      <ItemData ItemOID="IT.RS.DOMAIN" Value="RS"/>
      <ItemData ItemOID="IT.RS.USUBJID" Value="CDISC009"/>
      <ItemData ItemOID="IT.RS.RSSEQ" Value="11"/>
      <ItemData ItemOID="IT.RS.RSTESTCD" Value="HAMD111"/>
      <ItemData ItemOID="IT.RS.RSTEST" Value="HAMD1-Anxiety Somatic"/>
      <ItemData ItemOID="IT.RS.RSCAT" Value="HAMD 17"/>
      <ItemData ItemOID="IT.RS.RSORRES" Value="Mild."/>
      <ItemData ItemOID="IT.RS.RSSTRESC" Value="1"/>
      <ItemData ItemOID="IT.RS.RSSTRESN" Value="1"/>
      <ItemData ItemOID="IT.RS.RSLOBXFL" Value="Y"/>
      <ItemData ItemOID="IT.RS.VISITNUM" Value="3"/>
      <ItemData ItemOID="IT.RS.VISIT" Value="BASELINE"/>
      <ItemData ItemOID="IT.RS.EPOCH" Value="SCREENING"/>
      <ItemData ItemOID="IT.RS.RSDTC" Value="2012-10-22"/>
      <ItemData ItemOID="IT.RS.RSDY" Value="1"/>
      <ItemData ItemOID="IT.RS.RSEVLINT" Value="-P1W"/>
    </ItemGroupData>
    <ItemGroupData ItemGroupOID="IG.RS" data:ItemGroupDataSeq="154">
      <ItemData ItemOID="IT.RS.STUDYID" Value="CDISCPILOT01"/>
      <ItemData ItemOID="IT.RS.DOMAIN" Value="RS"/>
      <ItemData ItemOID="IT.RS.USUBJID" Value="CDISC009"/>
      <ItemData ItemOID="IT.RS.RSSEQ" Value="12"/>
      <ItemData ItemOID="IT.RS.RSTESTCD" Value="HAMD112"/>
      <ItemData ItemOID="IT.RS.RSTEST" Value="HAMD1-Somatic Symptoms GI"/>
      <ItemData ItemOID="IT.RS.RSCAT" Value="HAMD 17"/>
      <ItemData ItemOID="IT.RS.RSORRES" Value="Loss of appetite but eating without staff encouragement. Heavy feelings in abdomen."/>
      <ItemData ItemOID="IT.RS.RSSTRESC" Value="1"/>
      <ItemData ItemOID="IT.RS.RSSTRESN" Value="1"/>
      <ItemData ItemOID="IT.RS.RSLOBXFL" Value="Y"/>
      <ItemData ItemOID="IT.RS.VISITNUM" Value="3"/>
      <ItemData ItemOID="IT.RS.VISIT" Value="BASELINE"/>
      <ItemData ItemOID="IT.RS.EPOCH" Value="SCREENING"/>
      <ItemData ItemOID="IT.RS.RSDTC" Value="2012-10-22"/>
      <ItemData ItemOID="IT.RS.RSDY" Value="1"/>
      <ItemData ItemOID="IT.RS.RSEVLINT" Value="-P1W"/>
    </ItemGroupData>
    <ItemGroupData ItemGroupOID="IG.RS" data:ItemGroupDataSeq="155">
      <ItemData ItemOID="IT.RS.STUDYID" Value="CDISCPILOT01"/>
      <ItemData ItemOID="IT.RS.DOMAIN" Value="RS"/>
      <ItemData ItemOID="IT.RS.USUBJID" Value="CDISC009"/>
      <ItemData ItemOID="IT.RS.RSSEQ" Value="13"/>
      <ItemData ItemOID="IT.RS.RSTESTCD" Value="HAMD113"/>
      <ItemData ItemOID="IT.RS.RSTEST" Value="HAMD1-General Somatic Symptoms"/>
      <ItemData ItemOID="IT.RS.RSCAT" Value="HAMD 17"/>
      <ItemData ItemOID="IT.RS.RSORRES" Value="Heaviness in limbs, back or head. Backaches, headaches, muscle aches. Loss of energy and fatigability."/>
      <ItemData ItemOID="IT.RS.RSSTRESC" Value="1"/>
      <ItemData ItemOID="IT.RS.RSSTRESN" Value="1"/>
      <ItemData ItemOID="IT.RS.RSLOBXFL" Value="Y"/>
      <ItemData ItemOID="IT.RS.VISITNUM" Value="3"/>
      <ItemData ItemOID="IT.RS.VISIT" Value="BASELINE"/>
      <ItemData ItemOID="IT.RS.EPOCH" Value="SCREENING"/>
      <ItemData ItemOID="IT.RS.RSDTC" Value="2012-10-22"/>
      <ItemData ItemOID="IT.RS.RSDY" Value="1"/>
      <ItemData ItemOID="IT.RS.RSEVLINT" Value="-P1W"/>
    </ItemGroupData>
    <ItemGroupData ItemGroupOID="IG.RS" data:ItemGroupDataSeq="156">
      <ItemData ItemOID="IT.RS.STUDYID" Value="CDISCPILOT01"/>
      <ItemData ItemOID="IT.RS.DOMAIN" Value="RS"/>
      <ItemData ItemOID="IT.RS.USUBJID" Value="CDISC009"/>
      <ItemData ItemOID="IT.RS.RSSEQ" Value="14"/>
      <ItemData ItemOID="IT.RS.RSTESTCD" Value="HAMD114"/>
      <ItemData ItemOID="IT.RS.RSTEST" Value="HAMD1-Genital Symptoms"/>
      <ItemData ItemOID="IT.RS.RSCAT" Value="HAMD 17"/>
      <ItemData ItemOID="IT.RS.RSORRES" Value="Absent."/>
      <ItemData ItemOID="IT.RS.RSSTRESC" Value="1"/>
      <ItemData ItemOID="IT.RS.RSSTRESN" Value="1"/>
      <ItemData ItemOID="IT.RS.RSLOBXFL" Value="Y"/>
      <ItemData ItemOID="IT.RS.VISITNUM" Value="3"/>
      <ItemData ItemOID="IT.RS.VISIT" Value="BASELINE"/>
      <ItemData ItemOID="IT.RS.EPOCH" Value="SCREENING"/>
      <ItemData ItemOID="IT.RS.RSDTC" Value="2012-10-22"/>
      <ItemData ItemOID="IT.RS.RSDY" Value="1"/>
      <ItemData ItemOID="IT.RS.RSEVLINT" Value="-P1W"/>
    </ItemGroupData>
    <ItemGroupData ItemGroupOID="IG.RS" data:ItemGroupDataSeq="157">
      <ItemData ItemOID="IT.RS.STUDYID" Value="CDISCPILOT01"/>
      <ItemData ItemOID="IT.RS.DOMAIN" Value="RS"/>
      <ItemData ItemOID="IT.RS.USUBJID" Value="CDISC009"/>
      <ItemData ItemOID="IT.RS.RSSEQ" Value="15"/>
      <ItemData ItemOID="IT.RS.RSTESTCD" Value="HAMD115"/>
      <ItemData ItemOID="IT.RS.RSTEST" Value="HAMD1-Hypochondriasis"/>
      <ItemData ItemOID="IT.RS.RSCAT" Value="HAMD 17"/>
      <ItemData ItemOID="IT.RS.RSORRES" Value="Self-absorption (bodily)."/>
      <ItemData ItemOID="IT.RS.RSSTRESC" Value="1"/>
      <ItemData ItemOID="IT.RS.RSSTRESN" Value="1"/>
      <ItemData ItemOID="IT.RS.RSLOBXFL" Value="Y"/>
      <ItemData ItemOID="IT.RS.VISITNUM" Value="3"/>
      <ItemData ItemOID="IT.RS.VISIT" Value="BASELINE"/>
      <ItemData ItemOID="IT.RS.EPOCH" Value="SCREENING"/>
      <ItemData ItemOID="IT.RS.RSDTC" Value="2012-10-22"/>
      <ItemData ItemOID="IT.RS.RSDY" Value="1"/>
      <ItemData ItemOID="IT.RS.RSEVLINT" Value="-P1W"/>
    </ItemGroupData>
    <ItemGroupData ItemGroupOID="IG.RS" data:ItemGroupDataSeq="158">
      <ItemData ItemOID="IT.RS.STUDYID" Value="CDISCPILOT01"/>
      <ItemData ItemOID="IT.RS.DOMAIN" Value="RS"/>
      <ItemData ItemOID="IT.RS.USUBJID" Value="CDISC009"/>
      <ItemData ItemOID="IT.RS.RSSEQ" Value="16"/>
      <ItemData ItemOID="IT.RS.RSTESTCD" Value="HAMD116B"/>
      <ItemData ItemOID="IT.RS.RSTEST" Value="HAMD1-Loss of WT According to WK Meas"/>
      <ItemData ItemOID="IT.RS.RSCAT" Value="HAMD 17"/>
      <ItemData ItemOID="IT.RS.RSORRES" Value="Probable weight loss associated with present illness."/>
      <ItemData ItemOID="IT.RS.RSSTRESC" Value="1"/>
      <ItemData ItemOID="IT.RS.RSSTRESN" Value="1"/>
      <ItemData ItemOID="IT.RS.RSLOBXFL" Value="Y"/>
      <ItemData ItemOID="IT.RS.VISITNUM" Value="3"/>
      <ItemData ItemOID="IT.RS.VISIT" Value="BASELINE"/>
      <ItemData ItemOID="IT.RS.EPOCH" Value="SCREENING"/>
      <ItemData ItemOID="IT.RS.RSDTC" Value="2012-10-22"/>
      <ItemData ItemOID="IT.RS.RSDY" Value="1"/>
      <ItemData ItemOID="IT.RS.RSEVLINT" Value="-P1W"/>
    </ItemGroupData>
    <ItemGroupData ItemGroupOID="IG.RS" data:ItemGroupDataSeq="159">
      <ItemData ItemOID="IT.RS.STUDYID" Value="CDISCPILOT01"/>
      <ItemData ItemOID="IT.RS.DOMAIN" Value="RS"/>
      <ItemData ItemOID="IT.RS.USUBJID" Value="CDISC009"/>
      <ItemData ItemOID="IT.RS.RSSEQ" Value="17"/>
      <ItemData ItemOID="IT.RS.RSTESTCD" Value="HAMD117"/>
      <ItemData ItemOID="IT.RS.RSTEST" Value="HAMD1-Insight"/>
      <ItemData ItemOID="IT.RS.RSCAT" Value="HAMD 17"/>
      <ItemData ItemOID="IT.RS.RSORRES" Value="Acknowledges illness but attributes cause to bad food, climate, overwork, virus, need for rest, etc."/>
      <ItemData ItemOID="IT.RS.RSSTRESC" Value="1"/>
      <ItemData ItemOID="IT.RS.RSSTRESN" Value="1"/>
      <ItemData ItemOID="IT.RS.RSLOBXFL" Value="Y"/>
      <ItemData ItemOID="IT.RS.VISITNUM" Value="3"/>
      <ItemData ItemOID="IT.RS.VISIT" Value="BASELINE"/>
      <ItemData ItemOID="IT.RS.EPOCH" Value="SCREENING"/>
      <ItemData ItemOID="IT.RS.RSDTC" Value="2012-10-22"/>
      <ItemData ItemOID="IT.RS.RSDY" Value="1"/>
      <ItemData ItemOID="IT.RS.RSEVLINT" Value="-P1W"/>
    </ItemGroupData>
    <ItemGroupData ItemGroupOID="IG.RS" data:ItemGroupDataSeq="160">
      <ItemData ItemOID="IT.RS.STUDYID" Value="CDISCPILOT01"/>
      <ItemData ItemOID="IT.RS.DOMAIN" Value="RS"/>
      <ItemData ItemOID="IT.RS.USUBJID" Value="CDISC009"/>
      <ItemData ItemOID="IT.RS.RSSEQ" Value="18"/>
      <ItemData ItemOID="IT.RS.RSTESTCD" Value="HAMD118"/>
      <ItemData ItemOID="IT.RS.RSTEST" Value="HAMD1-Total Score"/>
      <ItemData ItemOID="IT.RS.RSCAT" Value="HAMD 17"/>
      <ItemData ItemOID="IT.RS.RSORRES" Value="12"/>
      <ItemData ItemOID="IT.RS.RSSTRESC" Value="12"/>
      <ItemData ItemOID="IT.RS.RSSTRESN" Value="12"/>
      <ItemData ItemOID="IT.RS.RSLOBXFL" Value="Y"/>
      <ItemData ItemOID="IT.RS.VISITNUM" Value="3"/>
      <ItemData ItemOID="IT.RS.VISIT" Value="BASELINE"/>
      <ItemData ItemOID="IT.RS.EPOCH" Value="SCREENING"/>
      <ItemData ItemOID="IT.RS.RSDTC" Value="2012-10-22"/>
      <ItemData ItemOID="IT.RS.RSDY" Value="1"/>
      <ItemData ItemOID="IT.RS.RSEVLINT" Value="-P1W"/>
    </ItemGroupData>
    <ItemGroupData ItemGroupOID="IG.RS" data:ItemGroupDataSeq="161">
      <ItemData ItemOID="IT.RS.STUDYID" Value="CDISCPILOT01"/>
      <ItemData ItemOID="IT.RS.DOMAIN" Value="RS"/>
      <ItemData ItemOID="IT.RS.USUBJID" Value="CDISC010"/>
      <ItemData ItemOID="IT.RS.RSSEQ" Value="1"/>
      <ItemData ItemOID="IT.RS.RSTESTCD" Value="HAMD101"/>
      <ItemData ItemOID="IT.RS.RSTEST" Value="HAMD1-Depressed Mood"/>
      <ItemData ItemOID="IT.RS.RSCAT" Value="HAMD 17"/>
      <ItemData ItemOID="IT.RS.RSORRES" Value="These feeling states indicated only on questioning."/>
      <ItemData ItemOID="IT.RS.RSSTRESC" Value="1"/>
      <ItemData ItemOID="IT.RS.RSSTRESN" Value="1"/>
      <ItemData ItemOID="IT.RS.RSLOBXFL" Value="Y"/>
      <ItemData ItemOID="IT.RS.VISITNUM" Value="3"/>
      <ItemData ItemOID="IT.RS.VISIT" Value="BASELINE"/>
      <ItemData ItemOID="IT.RS.EPOCH" Value="SCREENING"/>
      <ItemData ItemOID="IT.RS.RSDTC" Value="2013-09-21"/>
      <ItemData ItemOID="IT.RS.RSDY" Value="1"/>
      <ItemData ItemOID="IT.RS.RSEVLINT" Value="-P1W"/>
    </ItemGroupData>
    <ItemGroupData ItemGroupOID="IG.RS" data:ItemGroupDataSeq="162">
      <ItemData ItemOID="IT.RS.STUDYID" Value="CDISCPILOT01"/>
      <ItemData ItemOID="IT.RS.DOMAIN" Value="RS"/>
      <ItemData ItemOID="IT.RS.USUBJID" Value="CDISC010"/>
      <ItemData ItemOID="IT.RS.RSSEQ" Value="2"/>
      <ItemData ItemOID="IT.RS.RSTESTCD" Value="HAMD102"/>
      <ItemData ItemOID="IT.RS.RSTEST" Value="HAMD1-Feelings of Guilt"/>
      <ItemData ItemOID="IT.RS.RSCAT" Value="HAMD 17"/>
      <ItemData ItemOID="IT.RS.RSORRES" Value="Ideas of guilt or rumination over past errors or sinful deeds."/>
      <ItemData ItemOID="IT.RS.RSSTRESC" Value="2"/>
      <ItemData ItemOID="IT.RS.RSSTRESN" Value="2"/>
      <ItemData ItemOID="IT.RS.RSLOBXFL" Value="Y"/>
      <ItemData ItemOID="IT.RS.VISITNUM" Value="3"/>
      <ItemData ItemOID="IT.RS.VISIT" Value="BASELINE"/>
      <ItemData ItemOID="IT.RS.EPOCH" Value="SCREENING"/>
      <ItemData ItemOID="IT.RS.RSDTC" Value="2013-09-21"/>
      <ItemData ItemOID="IT.RS.RSDY" Value="1"/>
      <ItemData ItemOID="IT.RS.RSEVLINT" Value="-P1W"/>
    </ItemGroupData>
    <ItemGroupData ItemGroupOID="IG.RS" data:ItemGroupDataSeq="163">
      <ItemData ItemOID="IT.RS.STUDYID" Value="CDISCPILOT01"/>
      <ItemData ItemOID="IT.RS.DOMAIN" Value="RS"/>
      <ItemData ItemOID="IT.RS.USUBJID" Value="CDISC010"/>
      <ItemData ItemOID="IT.RS.RSSEQ" Value="3"/>
      <ItemData ItemOID="IT.RS.RSTESTCD" Value="HAMD103"/>
      <ItemData ItemOID="IT.RS.RSTEST" Value="HAMD1-Suicide"/>
      <ItemData ItemOID="IT.RS.RSCAT" Value="HAMD 17"/>
      <ItemData ItemOID="IT.RS.RSORRES" Value="Wishes he/she were dead or any thoughts of possible death to self."/>
      <ItemData ItemOID="IT.RS.RSSTRESC" Value="2"/>
      <ItemData ItemOID="IT.RS.RSSTRESN" Value="2"/>
      <ItemData ItemOID="IT.RS.RSLOBXFL" Value="Y"/>
      <ItemData ItemOID="IT.RS.VISITNUM" Value="3"/>
      <ItemData ItemOID="IT.RS.VISIT" Value="BASELINE"/>
      <ItemData ItemOID="IT.RS.EPOCH" Value="SCREENING"/>
      <ItemData ItemOID="IT.RS.RSDTC" Value="2013-09-21"/>
      <ItemData ItemOID="IT.RS.RSDY" Value="1"/>
      <ItemData ItemOID="IT.RS.RSEVLINT" Value="-P1W"/>
    </ItemGroupData>
    <ItemGroupData ItemGroupOID="IG.RS" data:ItemGroupDataSeq="164">
      <ItemData ItemOID="IT.RS.STUDYID" Value="CDISCPILOT01"/>
      <ItemData ItemOID="IT.RS.DOMAIN" Value="RS"/>
      <ItemData ItemOID="IT.RS.USUBJID" Value="CDISC010"/>
      <ItemData ItemOID="IT.RS.RSSEQ" Value="4"/>
      <ItemData ItemOID="IT.RS.RSTESTCD" Value="HAMD104"/>
      <ItemData ItemOID="IT.RS.RSTEST" Value="HAMD1-Insomnia Early - Early Night"/>
      <ItemData ItemOID="IT.RS.RSCAT" Value="HAMD 17"/>
      <ItemData ItemOID="IT.RS.RSORRES" Value="Complains of occasional difficulty falling asleep, i.e. more than 1/2 hour"/>
      <ItemData ItemOID="IT.RS.RSSTRESC" Value="1"/>
      <ItemData ItemOID="IT.RS.RSSTRESN" Value="1"/>
      <ItemData ItemOID="IT.RS.RSLOBXFL" Value="Y"/>
      <ItemData ItemOID="IT.RS.VISITNUM" Value="3"/>
      <ItemData ItemOID="IT.RS.VISIT" Value="BASELINE"/>
      <ItemData ItemOID="IT.RS.EPOCH" Value="SCREENING"/>
      <ItemData ItemOID="IT.RS.RSDTC" Value="2013-09-21"/>
      <ItemData ItemOID="IT.RS.RSDY" Value="1"/>
      <ItemData ItemOID="IT.RS.RSEVLINT" Value="-P1W"/>
    </ItemGroupData>
    <ItemGroupData ItemGroupOID="IG.RS" data:ItemGroupDataSeq="165">
      <ItemData ItemOID="IT.RS.STUDYID" Value="CDISCPILOT01"/>
      <ItemData ItemOID="IT.RS.DOMAIN" Value="RS"/>
      <ItemData ItemOID="IT.RS.USUBJID" Value="CDISC010"/>
      <ItemData ItemOID="IT.RS.RSSEQ" Value="5"/>
      <ItemData ItemOID="IT.RS.RSTESTCD" Value="HAMD105"/>
      <ItemData ItemOID="IT.RS.RSTEST" Value="HAMD1-Insomnia Middle - Middle Night"/>
      <ItemData ItemOID="IT.RS.RSCAT" Value="HAMD 17"/>
      <ItemData ItemOID="IT.RS.RSORRES" Value="Patient complains of being restless and disturbed during the night."/>
      <ItemData ItemOID="IT.RS.RSSTRESC" Value="1"/>
      <ItemData ItemOID="IT.RS.RSSTRESN" Value="1"/>
      <ItemData ItemOID="IT.RS.RSLOBXFL" Value="Y"/>
      <ItemData ItemOID="IT.RS.VISITNUM" Value="3"/>
      <ItemData ItemOID="IT.RS.VISIT" Value="BASELINE"/>
      <ItemData ItemOID="IT.RS.EPOCH" Value="SCREENING"/>
      <ItemData ItemOID="IT.RS.RSDTC" Value="2013-09-21"/>
      <ItemData ItemOID="IT.RS.RSDY" Value="1"/>
      <ItemData ItemOID="IT.RS.RSEVLINT" Value="-P1W"/>
    </ItemGroupData>
    <ItemGroupData ItemGroupOID="IG.RS" data:ItemGroupDataSeq="166">
      <ItemData ItemOID="IT.RS.STUDYID" Value="CDISCPILOT01"/>
      <ItemData ItemOID="IT.RS.DOMAIN" Value="RS"/>
      <ItemData ItemOID="IT.RS.USUBJID" Value="CDISC010"/>
      <ItemData ItemOID="IT.RS.RSSEQ" Value="6"/>
      <ItemData ItemOID="IT.RS.RSTESTCD" Value="HAMD106"/>
      <ItemData ItemOID="IT.RS.RSTEST" Value="HAMD1-Insomnia Early Hours - Morning"/>
      <ItemData ItemOID="IT.RS.RSCAT" Value="HAMD 17"/>
      <ItemData ItemOID="IT.RS.RSORRES" Value="Waking in early hours of the morning but goes back to sleep."/>
      <ItemData ItemOID="IT.RS.RSSTRESC" Value="1"/>
      <ItemData ItemOID="IT.RS.RSSTRESN" Value="1"/>
      <ItemData ItemOID="IT.RS.RSLOBXFL" Value="Y"/>
      <ItemData ItemOID="IT.RS.VISITNUM" Value="3"/>
      <ItemData ItemOID="IT.RS.VISIT" Value="BASELINE"/>
      <ItemData ItemOID="IT.RS.EPOCH" Value="SCREENING"/>
      <ItemData ItemOID="IT.RS.RSDTC" Value="2013-09-21"/>
      <ItemData ItemOID="IT.RS.RSDY" Value="1"/>
      <ItemData ItemOID="IT.RS.RSEVLINT" Value="-P1W"/>
    </ItemGroupData>
    <ItemGroupData ItemGroupOID="IG.RS" data:ItemGroupDataSeq="167">
      <ItemData ItemOID="IT.RS.STUDYID" Value="CDISCPILOT01"/>
      <ItemData ItemOID="IT.RS.DOMAIN" Value="RS"/>
      <ItemData ItemOID="IT.RS.USUBJID" Value="CDISC010"/>
      <ItemData ItemOID="IT.RS.RSSEQ" Value="7"/>
      <ItemData ItemOID="IT.RS.RSTESTCD" Value="HAMD107"/>
      <ItemData ItemOID="IT.RS.RSTEST" Value="HAMD1-Work and Activities"/>
      <ItemData ItemOID="IT.RS.RSCAT" Value="HAMD 17"/>
      <ItemData ItemOID="IT.RS.RSORRES" Value="Loss of interest in activity, hobbies or work - either directly reported by the patient or indirect in listlessness, indecision and vacillation (feels he/she has to push self to work or activities)."/>
      <ItemData ItemOID="IT.RS.RSSTRESC" Value="2"/>
      <ItemData ItemOID="IT.RS.RSSTRESN" Value="2"/>
      <ItemData ItemOID="IT.RS.RSLOBXFL" Value="Y"/>
      <ItemData ItemOID="IT.RS.VISITNUM" Value="3"/>
      <ItemData ItemOID="IT.RS.VISIT" Value="BASELINE"/>
      <ItemData ItemOID="IT.RS.EPOCH" Value="SCREENING"/>
      <ItemData ItemOID="IT.RS.RSDTC" Value="2013-09-21"/>
      <ItemData ItemOID="IT.RS.RSDY" Value="1"/>
      <ItemData ItemOID="IT.RS.RSEVLINT" Value="-P1W"/>
    </ItemGroupData>
    <ItemGroupData ItemGroupOID="IG.RS" data:ItemGroupDataSeq="168">
      <ItemData ItemOID="IT.RS.STUDYID" Value="CDISCPILOT01"/>
      <ItemData ItemOID="IT.RS.DOMAIN" Value="RS"/>
      <ItemData ItemOID="IT.RS.USUBJID" Value="CDISC010"/>
      <ItemData ItemOID="IT.RS.RSSEQ" Value="8"/>
      <ItemData ItemOID="IT.RS.RSTESTCD" Value="HAMD108"/>
      <ItemData ItemOID="IT.RS.RSTEST" Value="HAMD1-Retardation"/>
      <ItemData ItemOID="IT.RS.RSCAT" Value="HAMD 17"/>
      <ItemData ItemOID="IT.RS.RSORRES" Value="Slight retardation during the interview."/>
      <ItemData ItemOID="IT.RS.RSSTRESC" Value="1"/>
      <ItemData ItemOID="IT.RS.RSSTRESN" Value="1"/>
      <ItemData ItemOID="IT.RS.RSLOBXFL" Value="Y"/>
      <ItemData ItemOID="IT.RS.VISITNUM" Value="3"/>
      <ItemData ItemOID="IT.RS.VISIT" Value="BASELINE"/>
      <ItemData ItemOID="IT.RS.EPOCH" Value="SCREENING"/>
      <ItemData ItemOID="IT.RS.RSDTC" Value="2013-09-21"/>
      <ItemData ItemOID="IT.RS.RSDY" Value="1"/>
      <ItemData ItemOID="IT.RS.RSEVLINT" Value="-P1W"/>
    </ItemGroupData>
    <ItemGroupData ItemGroupOID="IG.RS" data:ItemGroupDataSeq="169">
      <ItemData ItemOID="IT.RS.STUDYID" Value="CDISCPILOT01"/>
      <ItemData ItemOID="IT.RS.DOMAIN" Value="RS"/>
      <ItemData ItemOID="IT.RS.USUBJID" Value="CDISC010"/>
      <ItemData ItemOID="IT.RS.RSSEQ" Value="9"/>
      <ItemData ItemOID="IT.RS.RSTESTCD" Value="HAMD109"/>
      <ItemData ItemOID="IT.RS.RSTEST" Value="HAMD1-Agitation"/>
      <ItemData ItemOID="IT.RS.RSCAT" Value="HAMD 17"/>
      <ItemData ItemOID="IT.RS.RSORRES" Value="Playing with hands, hair, etc."/>
      <ItemData ItemOID="IT.RS.RSSTRESC" Value="2"/>
      <ItemData ItemOID="IT.RS.RSSTRESN" Value="2"/>
      <ItemData ItemOID="IT.RS.RSLOBXFL" Value="Y"/>
      <ItemData ItemOID="IT.RS.VISITNUM" Value="3"/>
      <ItemData ItemOID="IT.RS.VISIT" Value="BASELINE"/>
      <ItemData ItemOID="IT.RS.EPOCH" Value="SCREENING"/>
      <ItemData ItemOID="IT.RS.RSDTC" Value="2013-09-21"/>
      <ItemData ItemOID="IT.RS.RSDY" Value="1"/>
      <ItemData ItemOID="IT.RS.RSEVLINT" Value="-P1W"/>
    </ItemGroupData>
    <ItemGroupData ItemGroupOID="IG.RS" data:ItemGroupDataSeq="170">
      <ItemData ItemOID="IT.RS.STUDYID" Value="CDISCPILOT01"/>
      <ItemData ItemOID="IT.RS.DOMAIN" Value="RS"/>
      <ItemData ItemOID="IT.RS.USUBJID" Value="CDISC010"/>
      <ItemData ItemOID="IT.RS.RSSEQ" Value="10"/>
      <ItemData ItemOID="IT.RS.RSTESTCD" Value="HAMD110"/>
      <ItemData ItemOID="IT.RS.RSTEST" Value="HAMD1-Anxiety Psychic"/>
      <ItemData ItemOID="IT.RS.RSCAT" Value="HAMD 17"/>
      <ItemData ItemOID="IT.RS.RSORRES" Value="Subjective tension and irritability."/>
      <ItemData ItemOID="IT.RS.RSSTRESC" Value="1"/>
      <ItemData ItemOID="IT.RS.RSSTRESN" Value="1"/>
      <ItemData ItemOID="IT.RS.RSLOBXFL" Value="Y"/>
      <ItemData ItemOID="IT.RS.VISITNUM" Value="3"/>
      <ItemData ItemOID="IT.RS.VISIT" Value="BASELINE"/>
      <ItemData ItemOID="IT.RS.EPOCH" Value="SCREENING"/>
      <ItemData ItemOID="IT.RS.RSDTC" Value="2013-09-21"/>
      <ItemData ItemOID="IT.RS.RSDY" Value="1"/>
      <ItemData ItemOID="IT.RS.RSEVLINT" Value="-P1W"/>
    </ItemGroupData>
    <ItemGroupData ItemGroupOID="IG.RS" data:ItemGroupDataSeq="171">
      <ItemData ItemOID="IT.RS.STUDYID" Value="CDISCPILOT01"/>
      <ItemData ItemOID="IT.RS.DOMAIN" Value="RS"/>
      <ItemData ItemOID="IT.RS.USUBJID" Value="CDISC010"/>
      <ItemData ItemOID="IT.RS.RSSEQ" Value="11"/>
      <ItemData ItemOID="IT.RS.RSTESTCD" Value="HAMD111"/>
      <ItemData ItemOID="IT.RS.RSTEST" Value="HAMD1-Anxiety Somatic"/>
      <ItemData ItemOID="IT.RS.RSCAT" Value="HAMD 17"/>
      <ItemData ItemOID="IT.RS.RSORRES" Value="Mild."/>
      <ItemData ItemOID="IT.RS.RSSTRESC" Value="1"/>
      <ItemData ItemOID="IT.RS.RSSTRESN" Value="1"/>
      <ItemData ItemOID="IT.RS.RSLOBXFL" Value="Y"/>
      <ItemData ItemOID="IT.RS.VISITNUM" Value="3"/>
      <ItemData ItemOID="IT.RS.VISIT" Value="BASELINE"/>
      <ItemData ItemOID="IT.RS.EPOCH" Value="SCREENING"/>
      <ItemData ItemOID="IT.RS.RSDTC" Value="2013-09-21"/>
      <ItemData ItemOID="IT.RS.RSDY" Value="1"/>
      <ItemData ItemOID="IT.RS.RSEVLINT" Value="-P1W"/>
    </ItemGroupData>
    <ItemGroupData ItemGroupOID="IG.RS" data:ItemGroupDataSeq="172">
      <ItemData ItemOID="IT.RS.STUDYID" Value="CDISCPILOT01"/>
      <ItemData ItemOID="IT.RS.DOMAIN" Value="RS"/>
      <ItemData ItemOID="IT.RS.USUBJID" Value="CDISC010"/>
      <ItemData ItemOID="IT.RS.RSSEQ" Value="12"/>
      <ItemData ItemOID="IT.RS.RSTESTCD" Value="HAMD112"/>
      <ItemData ItemOID="IT.RS.RSTEST" Value="HAMD1-Somatic Symptoms GI"/>
      <ItemData ItemOID="IT.RS.RSCAT" Value="HAMD 17"/>
      <ItemData ItemOID="IT.RS.RSORRES" Value="Loss of appetite but eating without staff encouragement. Heavy feelings in abdomen."/>
      <ItemData ItemOID="IT.RS.RSSTRESC" Value="1"/>
      <ItemData ItemOID="IT.RS.RSSTRESN" Value="1"/>
      <ItemData ItemOID="IT.RS.RSLOBXFL" Value="Y"/>
      <ItemData ItemOID="IT.RS.VISITNUM" Value="3"/>
      <ItemData ItemOID="IT.RS.VISIT" Value="BASELINE"/>
      <ItemData ItemOID="IT.RS.EPOCH" Value="SCREENING"/>
      <ItemData ItemOID="IT.RS.RSDTC" Value="2013-09-21"/>
      <ItemData ItemOID="IT.RS.RSDY" Value="1"/>
      <ItemData ItemOID="IT.RS.RSEVLINT" Value="-P1W"/>
    </ItemGroupData>
    <ItemGroupData ItemGroupOID="IG.RS" data:ItemGroupDataSeq="173">
      <ItemData ItemOID="IT.RS.STUDYID" Value="CDISCPILOT01"/>
      <ItemData ItemOID="IT.RS.DOMAIN" Value="RS"/>
      <ItemData ItemOID="IT.RS.USUBJID" Value="CDISC010"/>
      <ItemData ItemOID="IT.RS.RSSEQ" Value="13"/>
      <ItemData ItemOID="IT.RS.RSTESTCD" Value="HAMD113"/>
      <ItemData ItemOID="IT.RS.RSTEST" Value="HAMD1-General Somatic Symptoms"/>
      <ItemData ItemOID="IT.RS.RSCAT" Value="HAMD 17"/>
      <ItemData ItemOID="IT.RS.RSORRES" Value="Heaviness in limbs, back or head. Backaches, headaches, muscle aches. Loss of energy and fatigability."/>
      <ItemData ItemOID="IT.RS.RSSTRESC" Value="1"/>
      <ItemData ItemOID="IT.RS.RSSTRESN" Value="1"/>
      <ItemData ItemOID="IT.RS.RSLOBXFL" Value="Y"/>
      <ItemData ItemOID="IT.RS.VISITNUM" Value="3"/>
      <ItemData ItemOID="IT.RS.VISIT" Value="BASELINE"/>
      <ItemData ItemOID="IT.RS.EPOCH" Value="SCREENING"/>
      <ItemData ItemOID="IT.RS.RSDTC" Value="2013-09-21"/>
      <ItemData ItemOID="IT.RS.RSDY" Value="1"/>
      <ItemData ItemOID="IT.RS.RSEVLINT" Value="-P1W"/>
    </ItemGroupData>
    <ItemGroupData ItemGroupOID="IG.RS" data:ItemGroupDataSeq="174">
      <ItemData ItemOID="IT.RS.STUDYID" Value="CDISCPILOT01"/>
      <ItemData ItemOID="IT.RS.DOMAIN" Value="RS"/>
      <ItemData ItemOID="IT.RS.USUBJID" Value="CDISC010"/>
      <ItemData ItemOID="IT.RS.RSSEQ" Value="14"/>
      <ItemData ItemOID="IT.RS.RSTESTCD" Value="HAMD114"/>
      <ItemData ItemOID="IT.RS.RSTEST" Value="HAMD1-Genital Symptoms"/>
      <ItemData ItemOID="IT.RS.RSCAT" Value="HAMD 17"/>
      <ItemData ItemOID="IT.RS.RSORRES" Value="Mild."/>
      <ItemData ItemOID="IT.RS.RSSTRESC" Value="1"/>
      <ItemData ItemOID="IT.RS.RSSTRESN" Value="1"/>
      <ItemData ItemOID="IT.RS.RSLOBXFL" Value="Y"/>
      <ItemData ItemOID="IT.RS.VISITNUM" Value="3"/>
      <ItemData ItemOID="IT.RS.VISIT" Value="BASELINE"/>
      <ItemData ItemOID="IT.RS.EPOCH" Value="SCREENING"/>
      <ItemData ItemOID="IT.RS.RSDTC" Value="2013-09-21"/>
      <ItemData ItemOID="IT.RS.RSDY" Value="1"/>
      <ItemData ItemOID="IT.RS.RSEVLINT" Value="-P1W"/>
    </ItemGroupData>
    <ItemGroupData ItemGroupOID="IG.RS" data:ItemGroupDataSeq="175">
      <ItemData ItemOID="IT.RS.STUDYID" Value="CDISCPILOT01"/>
      <ItemData ItemOID="IT.RS.DOMAIN" Value="RS"/>
      <ItemData ItemOID="IT.RS.USUBJID" Value="CDISC010"/>
      <ItemData ItemOID="IT.RS.RSSEQ" Value="15"/>
      <ItemData ItemOID="IT.RS.RSTESTCD" Value="HAMD115"/>
      <ItemData ItemOID="IT.RS.RSTEST" Value="HAMD1-Hypochondriasis"/>
      <ItemData ItemOID="IT.RS.RSCAT" Value="HAMD 17"/>
      <ItemData ItemOID="IT.RS.RSORRES" Value="Self-absorption (bodily)."/>
      <ItemData ItemOID="IT.RS.RSSTRESC" Value="1"/>
      <ItemData ItemOID="IT.RS.RSSTRESN" Value="1"/>
      <ItemData ItemOID="IT.RS.RSLOBXFL" Value="Y"/>
      <ItemData ItemOID="IT.RS.VISITNUM" Value="3"/>
      <ItemData ItemOID="IT.RS.VISIT" Value="BASELINE"/>
      <ItemData ItemOID="IT.RS.EPOCH" Value="SCREENING"/>
      <ItemData ItemOID="IT.RS.RSDTC" Value="2013-09-21"/>
      <ItemData ItemOID="IT.RS.RSDY" Value="1"/>
      <ItemData ItemOID="IT.RS.RSEVLINT" Value="-P1W"/>
    </ItemGroupData>
    <ItemGroupData ItemGroupOID="IG.RS" data:ItemGroupDataSeq="176">
      <ItemData ItemOID="IT.RS.STUDYID" Value="CDISCPILOT01"/>
      <ItemData ItemOID="IT.RS.DOMAIN" Value="RS"/>
      <ItemData ItemOID="IT.RS.USUBJID" Value="CDISC010"/>
      <ItemData ItemOID="IT.RS.RSSEQ" Value="16"/>
      <ItemData ItemOID="IT.RS.RSTESTCD" Value="HAMD116B"/>
      <ItemData ItemOID="IT.RS.RSTEST" Value="HAMD1-Loss of WT According to WK Meas"/>
      <ItemData ItemOID="IT.RS.RSCAT" Value="HAMD 17"/>
      <ItemData ItemOID="IT.RS.RSORRES" Value="No weight loss."/>
      <ItemData ItemOID="IT.RS.RSSTRESC" Value="0"/>
      <ItemData ItemOID="IT.RS.RSSTRESN" Value="0"/>
      <ItemData ItemOID="IT.RS.RSLOBXFL" Value="Y"/>
      <ItemData ItemOID="IT.RS.VISITNUM" Value="3"/>
      <ItemData ItemOID="IT.RS.VISIT" Value="BASELINE"/>
      <ItemData ItemOID="IT.RS.EPOCH" Value="SCREENING"/>
      <ItemData ItemOID="IT.RS.RSDTC" Value="2013-09-21"/>
      <ItemData ItemOID="IT.RS.RSDY" Value="1"/>
      <ItemData ItemOID="IT.RS.RSEVLINT" Value="-P1W"/>
    </ItemGroupData>
    <ItemGroupData ItemGroupOID="IG.RS" data:ItemGroupDataSeq="177">
      <ItemData ItemOID="IT.RS.STUDYID" Value="CDISCPILOT01"/>
      <ItemData ItemOID="IT.RS.DOMAIN" Value="RS"/>
      <ItemData ItemOID="IT.RS.USUBJID" Value="CDISC010"/>
      <ItemData ItemOID="IT.RS.RSSEQ" Value="17"/>
      <ItemData ItemOID="IT.RS.RSTESTCD" Value="HAMD117"/>
      <ItemData ItemOID="IT.RS.RSTEST" Value="HAMD1-Insight"/>
      <ItemData ItemOID="IT.RS.RSCAT" Value="HAMD 17"/>
      <ItemData ItemOID="IT.RS.RSORRES" Value="Acknowledges illness but attributes cause to bad food, climate, overwork, virus, need for rest, etc."/>
      <ItemData ItemOID="IT.RS.RSSTRESC" Value="1"/>
      <ItemData ItemOID="IT.RS.RSSTRESN" Value="1"/>
      <ItemData ItemOID="IT.RS.RSLOBXFL" Value="Y"/>
      <ItemData ItemOID="IT.RS.VISITNUM" Value="3"/>
      <ItemData ItemOID="IT.RS.VISIT" Value="BASELINE"/>
      <ItemData ItemOID="IT.RS.EPOCH" Value="SCREENING"/>
      <ItemData ItemOID="IT.RS.RSDTC" Value="2013-09-21"/>
      <ItemData ItemOID="IT.RS.RSDY" Value="1"/>
      <ItemData ItemOID="IT.RS.RSEVLINT" Value="-P1W"/>
    </ItemGroupData>
    <ItemGroupData ItemGroupOID="IG.RS" data:ItemGroupDataSeq="178">
      <ItemData ItemOID="IT.RS.STUDYID" Value="CDISCPILOT01"/>
      <ItemData ItemOID="IT.RS.DOMAIN" Value="RS"/>
      <ItemData ItemOID="IT.RS.USUBJID" Value="CDISC010"/>
      <ItemData ItemOID="IT.RS.RSSEQ" Value="18"/>
      <ItemData ItemOID="IT.RS.RSTESTCD" Value="HAMD118"/>
      <ItemData ItemOID="IT.RS.RSTEST" Value="HAMD1-Total Score"/>
      <ItemData ItemOID="IT.RS.RSCAT" Value="HAMD 17"/>
      <ItemData ItemOID="IT.RS.RSORRES" Value="20"/>
      <ItemData ItemOID="IT.RS.RSSTRESC" Value="20"/>
      <ItemData ItemOID="IT.RS.RSSTRESN" Value="20"/>
      <ItemData ItemOID="IT.RS.RSLOBXFL" Value="Y"/>
      <ItemData ItemOID="IT.RS.VISITNUM" Value="3"/>
      <ItemData ItemOID="IT.RS.VISIT" Value="BASELINE"/>
      <ItemData ItemOID="IT.RS.EPOCH" Value="SCREENING"/>
      <ItemData ItemOID="IT.RS.RSDTC" Value="2013-09-21"/>
      <ItemData ItemOID="IT.RS.RSDY" Value="1"/>
      <ItemData ItemOID="IT.RS.RSEVLINT" Value="-P1W"/>
    </ItemGroupData>
    <ItemGroupData ItemGroupOID="IG.RS" data:ItemGroupDataSeq="179">
      <ItemData ItemOID="IT.RS.STUDYID" Value="CDISCPILOT01"/>
      <ItemData ItemOID="IT.RS.DOMAIN" Value="RS"/>
      <ItemData ItemOID="IT.RS.USUBJID" Value="CDISC011"/>
      <ItemData ItemOID="IT.RS.RSSEQ" Value="1"/>
      <ItemData ItemOID="IT.RS.RSTESTCD" Value="HAMD101"/>
      <ItemData ItemOID="IT.RS.RSTEST" Value="HAMD1-Depressed Mood"/>
      <ItemData ItemOID="IT.RS.RSCAT" Value="HAMD 17"/>
      <ItemData ItemOID="IT.RS.RSORRES" Value="Absent."/>
      <ItemData ItemOID="IT.RS.RSSTRESC" Value="0"/>
      <ItemData ItemOID="IT.RS.RSSTRESN" Value="0"/>
      <ItemData ItemOID="IT.RS.RSLOBXFL" Value="Y"/>
      <ItemData ItemOID="IT.RS.VISITNUM" Value="3"/>
      <ItemData ItemOID="IT.RS.VISIT" Value="BASELINE"/>
      <ItemData ItemOID="IT.RS.EPOCH" Value="SCREENING"/>
      <ItemData ItemOID="IT.RS.RSDTC" Value="2012-12-07"/>
      <ItemData ItemOID="IT.RS.RSDY" Value="1"/>
      <ItemData ItemOID="IT.RS.RSEVLINT" Value="-P1W"/>
    </ItemGroupData>
    <ItemGroupData ItemGroupOID="IG.RS" data:ItemGroupDataSeq="180">
      <ItemData ItemOID="IT.RS.STUDYID" Value="CDISCPILOT01"/>
      <ItemData ItemOID="IT.RS.DOMAIN" Value="RS"/>
      <ItemData ItemOID="IT.RS.USUBJID" Value="CDISC011"/>
      <ItemData ItemOID="IT.RS.RSSEQ" Value="2"/>
      <ItemData ItemOID="IT.RS.RSTESTCD" Value="HAMD102"/>
      <ItemData ItemOID="IT.RS.RSTEST" Value="HAMD1-Feelings of Guilt"/>
      <ItemData ItemOID="IT.RS.RSCAT" Value="HAMD 17"/>
      <ItemData ItemOID="IT.RS.RSORRES" Value="Ideas of guilt or rumination over past errors or sinful deeds."/>
      <ItemData ItemOID="IT.RS.RSSTRESC" Value="2"/>
      <ItemData ItemOID="IT.RS.RSSTRESN" Value="2"/>
      <ItemData ItemOID="IT.RS.RSLOBXFL" Value="Y"/>
      <ItemData ItemOID="IT.RS.VISITNUM" Value="3"/>
      <ItemData ItemOID="IT.RS.VISIT" Value="BASELINE"/>
      <ItemData ItemOID="IT.RS.EPOCH" Value="SCREENING"/>
      <ItemData ItemOID="IT.RS.RSDTC" Value="2012-12-07"/>
      <ItemData ItemOID="IT.RS.RSDY" Value="1"/>
      <ItemData ItemOID="IT.RS.RSEVLINT" Value="-P1W"/>
    </ItemGroupData>
    <ItemGroupData ItemGroupOID="IG.RS" data:ItemGroupDataSeq="181">
      <ItemData ItemOID="IT.RS.STUDYID" Value="CDISCPILOT01"/>
      <ItemData ItemOID="IT.RS.DOMAIN" Value="RS"/>
      <ItemData ItemOID="IT.RS.USUBJID" Value="CDISC011"/>
      <ItemData ItemOID="IT.RS.RSSEQ" Value="3"/>
      <ItemData ItemOID="IT.RS.RSTESTCD" Value="HAMD103"/>
      <ItemData ItemOID="IT.RS.RSTEST" Value="HAMD1-Suicide"/>
      <ItemData ItemOID="IT.RS.RSCAT" Value="HAMD 17"/>
      <ItemData ItemOID="IT.RS.RSORRES" Value="Wishes he/she were dead or any thoughts of possible death to self."/>
      <ItemData ItemOID="IT.RS.RSSTRESC" Value="2"/>
      <ItemData ItemOID="IT.RS.RSSTRESN" Value="2"/>
      <ItemData ItemOID="IT.RS.RSLOBXFL" Value="Y"/>
      <ItemData ItemOID="IT.RS.VISITNUM" Value="3"/>
      <ItemData ItemOID="IT.RS.VISIT" Value="BASELINE"/>
      <ItemData ItemOID="IT.RS.EPOCH" Value="SCREENING"/>
      <ItemData ItemOID="IT.RS.RSDTC" Value="2012-12-07"/>
      <ItemData ItemOID="IT.RS.RSDY" Value="1"/>
      <ItemData ItemOID="IT.RS.RSEVLINT" Value="-P1W"/>
    </ItemGroupData>
    <ItemGroupData ItemGroupOID="IG.RS" data:ItemGroupDataSeq="182">
      <ItemData ItemOID="IT.RS.STUDYID" Value="CDISCPILOT01"/>
      <ItemData ItemOID="IT.RS.DOMAIN" Value="RS"/>
      <ItemData ItemOID="IT.RS.USUBJID" Value="CDISC011"/>
      <ItemData ItemOID="IT.RS.RSSEQ" Value="4"/>
      <ItemData ItemOID="IT.RS.RSTESTCD" Value="HAMD104"/>
      <ItemData ItemOID="IT.RS.RSTEST" Value="HAMD1-Insomnia Early - Early Night"/>
      <ItemData ItemOID="IT.RS.RSCAT" Value="HAMD 17"/>
      <ItemData ItemOID="IT.RS.RSORRES" Value="Complains of nightly difficulty falling asleep."/>
      <ItemData ItemOID="IT.RS.RSSTRESC" Value="2"/>
      <ItemData ItemOID="IT.RS.RSSTRESN" Value="2"/>
      <ItemData ItemOID="IT.RS.RSLOBXFL" Value="Y"/>
      <ItemData ItemOID="IT.RS.VISITNUM" Value="3"/>
      <ItemData ItemOID="IT.RS.VISIT" Value="BASELINE"/>
      <ItemData ItemOID="IT.RS.EPOCH" Value="SCREENING"/>
      <ItemData ItemOID="IT.RS.RSDTC" Value="2012-12-07"/>
      <ItemData ItemOID="IT.RS.RSDY" Value="1"/>
      <ItemData ItemOID="IT.RS.RSEVLINT" Value="-P1W"/>
    </ItemGroupData>
    <ItemGroupData ItemGroupOID="IG.RS" data:ItemGroupDataSeq="183">
      <ItemData ItemOID="IT.RS.STUDYID" Value="CDISCPILOT01"/>
      <ItemData ItemOID="IT.RS.DOMAIN" Value="RS"/>
      <ItemData ItemOID="IT.RS.USUBJID" Value="CDISC011"/>
      <ItemData ItemOID="IT.RS.RSSEQ" Value="5"/>
      <ItemData ItemOID="IT.RS.RSTESTCD" Value="HAMD105"/>
      <ItemData ItemOID="IT.RS.RSTEST" Value="HAMD1-Insomnia Middle - Middle Night"/>
      <ItemData ItemOID="IT.RS.RSCAT" Value="HAMD 17"/>
      <ItemData ItemOID="IT.RS.RSORRES" Value="Patient complains of being restless and disturbed during the night."/>
      <ItemData ItemOID="IT.RS.RSSTRESC" Value="1"/>
